participant_id,participant_folder,timestamp_raw,timestamp_iso,source_log,source_log_full_path,block,block_type,block_index_within_type,global_block_order,trial_idx_in_block,trial_idx_global,order_condition,question_id,question_number,question_year,question_field,question_type_log_clean,metadata_question_type,correct_answer,enem_correctness,total_word_count,sentence_count,sentence_length,question_itself_translated,chosen_answer,participant_correct,response_status,answer_available,t_text_on,t_stem_on,t_options_on,t_answer,rt_text_to_stem,rt_stem_to_options,rt_options_to_answer,rt_text_to_answer,rt_stem_to_answer,sec_per_word,sec_per_sentence,metadata_matched,metadata_type_matches_log,metadata_year_matches_log,metadata_field_matches_log,quality_flags,trial_notes,block_type_from_block,question_type_log,t_iti,rt_from_phase_answer,option_view_time,chosen_answer_raw,answer_marker_name,n_answer_rows,n_button_click_rows,button_click_times_json,metadata_question_year,metadata_question_field,metadata_question_number,question_text_translated,question_option_A_translated,question_option_B_translated,question_option_C_translated,question_option_D_translated,question_option_E_translated,metadata_validation_flags
PID001,PID001,20251106_124958,2025-11-06 12:49:58,enem_blocks_PID01_20251106_124958.csv,/home/thiago/Documents/fnirs/simple/sessions/Sessions 05-11-25/PID001/enem_blocks_PID01_20251106_124958.csv,A1,Abstract,1,1,1,1,AbstractFirst,2022_CH_51,51,2022,CH,Abstract,Abstract,E,0.2543846345770937,91.0,5.0,18.2,What structural change is the result of the form of economic organization described in the text?,A,0,ANSWERED_VALID,True,354.211628,423.410714,457.811284,505.005125,69.19908599999997,34.400570000000016,47.19384100000002,150.793497,81.59441100000004,1.6570713956043956,30.1586994,True,True,True,True,,ITI duration: 4.06s,Abstract,abstract,354.170595,47.19387989999086,47.193861,A,ANS_A,1,0,[],2022,CH,51,"A new economy emerged on a global scale in the last quarter of the 20th century. I call it informational, to identify its fundamental and differentiated global and network characteristics and emphasize their interconnection. It is informational because it basically depends on its ability to efficiently generate, process and apply knowledge-based information. It is global because its components are organized on a global scale, directly or through a network of connections between economic agents. It is a network because it is based on a global network of interactions between business networks.",Series manufacturing.,Expansion of stocks.,Weakening of cartels.,Standardization of goods.,Deterritorialization of production.,
PID001,PID001,20251106_124958,2025-11-06 12:49:58,enem_blocks_PID01_20251106_124958.csv,/home/thiago/Documents/fnirs/simple/sessions/Sessions 05-11-25/PID001/enem_blocks_PID01_20251106_124958.csv,A1,Abstract,1,1,2,2,AbstractFirst,2022_CH_71,71,2022,CH,Abstract,Abstract,A,0.444068288594161,59.0,3.0,19.67,"In contemporary societies, it consists of a violation of the basic principle stated in the text:",A,1,ANSWERED_VALID,True,508.710544,540.978507,553.459335,633.017957,32.26796300000001,12.480827999999974,79.55862200000001,124.307413,92.03944999999999,2.1069053050847457,41.43580433333333,True,True,True,True,,ITI duration: 3.15s,Abstract,abstract,508.694435,79.55865849999827,79.55864,A,ANS_A,1,0,[],2022,CH,71,"The basic principle of the rule of law is the elimination of discretion in the exercise of public powers, with the consequent guarantee of individuals' rights before these powers. Rule of law means that no individual, president or ordinary citizen is above the law. Democratic governments exercise authority through law and are themselves subject to constraints imposed by law.",Suppression of elections for political representatives.,Intervention in areas of vulnerability by the Church.,Dissemination of social projects in universities.,Expansion of income concentration processes.,Regulation of labor relations by the Legislature.,
PID001,PID001,20251106_124958,2025-11-06 12:49:58,enem_blocks_PID01_20251106_124958.csv,/home/thiago/Documents/fnirs/simple/sessions/Sessions 05-11-25/PID001/enem_blocks_PID01_20251106_124958.csv,A1,Abstract,1,1,3,3,AbstractFirst,2022_CH_47,47,2022,CH,Abstract,Abstract,E,0.4736677315356127,114.0,4.0,28.5,"In the excerpt, philosopher Hannah Arendt shows the importance of language in the process of",C,0,ANSWERED_VALID,True,637.491758,646.283089,755.353059,814.222746,8.791331000000014,109.06997000000001,58.869687,176.73098800000002,167.939657,1.5502718245614038,44.182747000000006,True,True,True,True,,ITI duration: 3.92s,Abstract,abstract,637.4583,58.8697233999992,58.86971,C,ANS_C,1,0,[],2022,CH,47,"Whenever the relevance of speech comes into play, the issue becomes political by definition, as it is speech that makes man a political being. And everything that men do, know or experience only makes sense to the extent that it can be discussed. There will, perhaps, be truths that go beyond language and that can be of great relevance to man in the singular, that is, to man who, whatever he may be, is not a political being. But men in the plural, that is, men who live and move and act in this world, can only experience the meaning of things because they can speak and be intelligible among themselves and with themselves.",understanding of culture.,increased creativity.,perception of individuality.,improvement of technique.,construction of sociability.,
PID001,PID001,20251106_124958,2025-11-06 12:49:58,enem_blocks_PID01_20251106_124958.csv,/home/thiago/Documents/fnirs/simple/sessions/Sessions 05-11-25/PID001/enem_blocks_PID01_20251106_124958.csv,A2,Abstract,2,2,1,4,AbstractFirst,2019_CH_65,65,2019,CH,Abstract,Abstract,A,0.3433019991514724,88.0,3.0,29.33,The text points to an innovation in political theory in the modern era defined by the distinction between:,C,0,ANSWERED_VALID,True,821.63969,824.184014,894.456655,923.238447,2.544324000000074,70.27264099999991,28.781791999999996,101.59875699999998,99.0544329999999,1.1545313295454542,33.86625233333333,True,True,True,True,,ITI duration: 4.03s,Abstract,abstract,821.613601,28.781878000008874,28.781864,C,ANS_C,1,0,[],2019,CH,65,"For Machiavelli, when a man decides to tell the truth at the risk of his own physical integrity, such a decision concerns only his person. But if that same man is a head of state, personal criteria are no longer adequate to decide on actions whose consequences become so broad, since the damage will not only be individual, but collective. In this case, depending on the circumstances and the ends to be achieved, it can be decided that the best thing for the common good is to lie.",ideality and effectiveness of morality.,nullity and preservation of freedom.,illegality and legitimacy of the ruler.,verifiability and possibility of truth.,objectivity and subjectivity of knowledge.,
PID001,PID001,20251106_124958,2025-11-06 12:49:58,enem_blocks_PID01_20251106_124958.csv,/home/thiago/Documents/fnirs/simple/sessions/Sessions 05-11-25/PID001/enem_blocks_PID01_20251106_124958.csv,A2,Abstract,2,2,2,5,AbstractFirst,2020_LC_31,31,2020,LC,Abstract,Abstract,E,0.4478960422147685,127.0,5.0,25.4,"Due to the characteristics of the text read, which deals with the consequences of losing a pet, it is considered to fit into the genre",C,0,ANSWERED_VALID,True,928.13484,935.371683,948.800926,1054.801112,7.236842999999908,13.429243000000042,106.0001860000001,126.66627200000005,119.42942900000014,0.9973722204724413,25.33325440000001,True,True,True,True,,ITI duration: 4.33s,Abstract,abstract,928.078901,106.00028429999657,106.000265,C,ANS_C,1,0,[],2020,LC,31,"Woman has clinically broken heart after dog dies
As The New England Journal of Medicine explains, the patient, named Joanie Simpson, had signs of a heart attack, such as chest pain and high blood pressure, and had problems with her coronary arteries. When doctors performed an echocardiogram, they found the problem: Takotsubo cardiomyopathy, known as broken heart syndrome.
This medical condition typically occurs in postmenopausal women and may be preceded by a very stressful or emotional event. In these cases, the heart presents a transient dyskinetic movement of the anterior wall of the left ventricle, with accentuation of the kinetics of the ventricular base, according to a Brazilian medical article that reports a similar case. Simpson was sent home after two days and started taking regular medication.","short story, as it shows the life story of Joanie Simpson.","testimony, as it exposes the suffering of the animal's owner.","report, as it scientifically discusses cardiomyopathy.","report, as it narrates a stressful event experienced by the patient.","news, as it discloses facts about broken heart syndrome.",
PID001,PID001,20251106_124958,2025-11-06 12:49:58,enem_blocks_PID01_20251106_124958.csv,/home/thiago/Documents/fnirs/simple/sessions/Sessions 05-11-25/PID001/enem_blocks_PID01_20251106_124958.csv,A2,Abstract,2,2,3,6,AbstractFirst,2020_CH_77,77,2020,CH,Abstract,Abstract,A,0.2928950929249277,79.0,1.0,79.0,"In the fragment, Aristotle promotes a reflection that associates two essential elements to the discussion about community life, namely:",D,0,ANSWERED_VALID,True,1059.231399,1061.149899,1061.949514,1157.301826,1.9184999999999945,0.7996149999999034,95.35231199999998,98.07042699999988,96.15192699999989,1.2413978101265808,98.07042699999988,True,True,True,True,,ITI duration: 3.88s,Abstract,abstract,1059.20818,95.35238160000881,95.352368,D,ANS_D,1,0,[],2020,CH,77,"We see that every city is a kind of community, and every community is formed with a view to some good, since all the actions of all men are carried out with a view to what seems to them a good; If all communities aim at some good, it is evident that the most important of them all and which includes all the others has this objective more than all and aims at the most important of all goods.","Ethics and politics, as they lead to eudaimonia.","Rhetoric and language, as they take care of the speeches in the agora.","Metaphysics and ontology, as they deal with first philosophy.","Democracy and society, as they refer to social relations.","Generation and corruption, as they encompass the field of physis.",
PID001,PID001,20251106_124958,2025-11-06 12:49:58,enem_blocks_PID01_20251106_124958.csv,/home/thiago/Documents/fnirs/simple/sessions/Sessions 05-11-25/PID001/enem_blocks_PID01_20251106_124958.csv,A3,Abstract,3,3,1,7,AbstractFirst,2021_CH_51,51,2021,CH,Abstract,Abstract,A,0.4690162788304226,56.0,3.0,18.67,"Considering the debate on water security, the proposal presented in the text is based on",B,0,ANSWERED_VALID,True,1245.060439,1278.478869,1284.733687,1295.845342,33.418429999999944,6.2548179999998865,11.111655000000155,50.784902999999986,17.366473000000042,0.9068732678571426,16.928300999999994,True,True,True,True,,ITI duration: 4.40s,Abstract,abstract,1245.0289,11.111727499999688,11.111712,B,ANS_B,1,0,[],2021,CH,51,"Fair prices and water use authorizations must adequately ensure that water withdrawal, as well as effluent return, maintain efficient and environmentally sustainable operations, in a way that is adaptable to the peculiarities and needs of industry and large-scale irrigation, as well as agricultural activities on a small scale and subsistence.
UNESCO. United Nations World Development Report",equitable distribution of supply.,monitoring urban supply.,rationing of river capacity.,gradual revitalization of soils.,generation of recyclable products.,
PID001,PID001,20251106_124958,2025-11-06 12:49:58,enem_blocks_PID01_20251106_124958.csv,/home/thiago/Documents/fnirs/simple/sessions/Sessions 05-11-25/PID001/enem_blocks_PID01_20251106_124958.csv,A3,Abstract,3,3,2,8,AbstractFirst,2021_CH_57,57,2021,CH,Abstract,Abstract,D,0.304245910773413,44.0,2.0,22.0,"The text indicates that, in capitalism, the satisfaction of personal desires is influenced by",B,0,ANSWERED_VALID,True,1300.780938,1302.705005,1347.468655,1381.716918,1.9240669999999227,44.76364999999987,34.24826300000018,80.93597999999997,79.01191300000005,1.8394540909090902,40.467989999999986,True,True,True,True,,ITI duration: 4.38s,Abstract,abstract,1300.754147,34.24832769999921,34.248311,B,ANS_B,1,0,[],2021,CH,57,"In the most highly developed sectors of contemporary society, the transplantation of social to individual needs is so effective that the difference between them appears purely theoretical. Creatures recognize themselves in their merchandise; they find their soul in their automobile, walk-up apartments, kitchen utensils.",state disclosure policies.,controlled consumption incentives.,collective organization prescriptions.,subjective identification mechanisms.,rationalized repressions of narcissism.,
PID001,PID001,20251106_124958,2025-11-06 12:49:58,enem_blocks_PID01_20251106_124958.csv,/home/thiago/Documents/fnirs/simple/sessions/Sessions 05-11-25/PID001/enem_blocks_PID01_20251106_124958.csv,A3,Abstract,3,3,3,9,AbstractFirst,2021_CH_86,86,2021,CH,Abstract,Abstract,A,0.5558420311097073,60.0,1.0,60.0,"This allegorical construction of Descartes, regarding the epistemological condition of philosophy, has as its goal",A,1,ANSWERED_VALID,True,1386.912722,1443.500722,1459.571741,1488.399263,56.587999999999965,16.07101899999998,28.827522000000044,101.48654099999999,44.89854100000002,1.6914423499999998,101.48654099999999,True,True,True,True,,ITI duration: 4.66s,Abstract,abstract,1386.890428,28.82758380001178,28.827566,A,ANS_A,1,0,[],2021,CH,86,"Philosophy is like a tree, whose roots are metaphysics; the trunk, physics, and the branches that come out of the trunk are all the other sciences, which are reduced to three main ones: medicine, mechanics and morals,
understanding morality as the highest and most perfect because it presupposes integral knowledge of other sciences, and is the last degree of wisdom.",sustain the essential unity of knowledge.,refute the fundamental element of beliefs.,boost speculative thinking.,welcome the experimental method.,encourage the suspension of judgments.,
PID001,PID001,20251106_124958,2025-11-06 12:49:58,enem_blocks_PID01_20251106_124958.csv,/home/thiago/Documents/fnirs/simple/sessions/Sessions 05-11-25/PID001/enem_blocks_PID01_20251106_124958.csv,A4,Abstract,4,4,1,10,AbstractFirst,2021_CH_65,65,2021,CH,Abstract,Abstract,A,0.6866014614393652,70.0,3.0,23.33,"In the text, the author presents ethical guidelines that correspond to the",B,0,ANSWERED_VALID,True,1667.298686,1704.743953,1712.833013,1770.003752,37.44526699999983,8.089060000000018,57.17073900000014,102.70506599999999,65.25979900000016,1.4672152285714284,34.235021999999994,True,True,True,True,,ITI duration: 4.78s,Abstract,abstract,1667.278293,57.17082899999514,57.170813,B,ANS_B,1,0,[],2021,CH,65,"At the same time, thanks to the ample opportunities I had to observe the middle class, your adversary, I quickly concluded that you are right, entirely right, in not expecting any help from them. Their interests are diametrically opposed to yours, even if she incessantly seeks to affirm the opposite and wants to persuade you that they feel the greatest sympathy for your fate. But their actions belie her words.",class struggle concept.,foundation of the idea of ​​surplus value.,foundations of the scientific method.,paradigms of the inquiry process.,domains of commodity fetishism.,
PID001,PID001,20251106_124958,2025-11-06 12:49:58,enem_blocks_PID01_20251106_124958.csv,/home/thiago/Documents/fnirs/simple/sessions/Sessions 05-11-25/PID001/enem_blocks_PID01_20251106_124958.csv,A4,Abstract,4,4,2,11,AbstractFirst,2019_CH_64,64,2019,CH,Abstract,Abstract,C,0.604244682645566,107.0,11.0,9.73,"In contrast to an idealized interpretation, the text points to the following fundamental dimension of modern science:",C,1,ANSWERED_VALID,True,1774.569213,1778.652996,1844.526489,1867.057296,4.0837830000000395,65.87349300000005,22.530806999999868,92.48808299999996,88.40429999999992,0.8643746074766352,8.408007545454542,True,True,True,True,,ITI duration: 3.99s,Abstract,abstract,1774.528859,22.530866200002492,22.530854,C,ANS_C,1,0,[],2019,CH,64,"Legend has it that on a beautiful sunny day, Newton was relaxing under an apple tree. Birds chirped in his ears. There was a gentle breeze. He dozed for a few minutes. Suddenly, an apple fell on his head and he woke up with a start. He looked up. “Surely a bird or a squirrel knocked the apple from the tree,” he guessed. But there were no birds or tree squirrels nearby. He then thought: “Just a few minutes ago, the apple was hanging on the tree. No external force made her fall. There must be some underlying force that causes things to fall to the earth.”",Falsification of theses.,Denial of observation.,Proposing hypotheses.,Contemplation of nature.,Universalization of conclusions.,
PID001,PID001,20251106_124958,2025-11-06 12:49:58,enem_blocks_PID01_20251106_124958.csv,/home/thiago/Documents/fnirs/simple/sessions/Sessions 05-11-25/PID001/enem_blocks_PID01_20251106_124958.csv,A4,Abstract,4,4,3,12,AbstractFirst,2020_CH_76,76,2020,CH,Abstract,Abstract,B,0.315717226144949,78.0,6.0,13.0,The text discusses the role played by a standard in creating an environment conducive to,B,1,ANSWERED_VALID,True,1870.716882,1903.678413,1925.434244,1974.455418,32.96153100000015,21.755830999999944,49.021173999999974,103.73853600000007,70.77700499999992,1.3299812307692316,17.28975600000001,True,True,True,True,,ITI duration: 3.09s,Abstract,abstract,1870.678846,49.02123969999957,49.021226,B,ANS_B,1,0,[],2020,CH,76,"“The main characteristic of the social situation of Anglo-Americans is its eminently democratic character. I previously stated that a very great equality reigned among the emigrants who went to settle in New England. The influence of succession laws contributed to this. Established in one way, succession laws bring together, concentrate and group property and power into one. Established by other principles, they produce the opposite: they divide, share and disseminate goods and power.”
(TOCQUEVILLE, A. Democracy in America.",use of slave labor.,consolidation of bourgeois values.,banning religious dissent.,containment of nationalist identification.,hierarchization of economic agents.,
PID001,PID001,20251106_124958,2025-11-06 12:49:58,enem_blocks_PID01_20251106_124958.csv,/home/thiago/Documents/fnirs/simple/sessions/Sessions 05-11-25/PID001/enem_blocks_PID01_20251106_124958.csv,A5,Abstract,5,5,1,13,AbstractFirst,2021_CH_83,83,2021,CH,Abstract,Abstract,A,0.4347480454401885,120.0,3.0,40.0,"For the Woyo people, the cultural artifacts mentioned in the text fulfill the function of a",B,0,ANSWERED_VALID,True,2088.416583,2148.243842,2157.974701,2181.455205,59.827258999999685,9.730859000000237,23.48050400000011,93.03862200000003,33.21136300000035,0.7753218500000003,31.01287400000001,True,True,True,True,,ITI duration: 3.57s,Abstract,abstract,2088.361813,23.480569099992863,23.480556,B,ANS_B,1,0,[],2021,CH,83,"Among several African peoples, particularly in the ancient Kingdom of Congo, there is graphic evidence that writing took various forms. An example of this are the pot lids carved in bas-relief from the Woyo people (Cabinda region), with everyday scenes and proverbs, drawings in the earth or sand, images engraved or inscribed on the chief's staffs or on sacred stones, but, above all,  movements of the human body inscribed in a familiar gesture. Among Woyo there was a custom for parents to offer their children carved pot lids, conveying a kind of message, with coded signs that translated guidelines for achieving a good marital relationship, being sensible in choosing a spouse and being alert to the difficulties of the marriage.",pedagogy of social customs.,imposition of forms of communication.,devaluation of youth behaviors.,destitution of the values ​​of marriage.,ethnography of religious celebrations.,
PID001,PID001,20251106_124958,2025-11-06 12:49:58,enem_blocks_PID01_20251106_124958.csv,/home/thiago/Documents/fnirs/simple/sessions/Sessions 05-11-25/PID001/enem_blocks_PID01_20251106_124958.csv,A5,Abstract,5,5,2,14,AbstractFirst,2019_CH_56,56,2019,CH,Abstract,Abstract,D,0.3926106536218327,72.0,2.0,36.0,The dynamics of transformation of the geography of industries described expose the complementarity between spatial dispersion and,D,1,ANSWERED_VALID,True,2185.317433,2187.448069,2189.61305,2314.335872,2.1306359999998676,2.164980999999898,124.72282200000018,129.01843899999994,126.88780300000008,1.7919227638888882,64.50921949999997,True,True,True,True,,ITI duration: 3.30s,Abstract,abstract,2185.279743,124.72287929999584,124.722866,D,ANS_D,1,0,[],2019,CH,56,"The global restructuring of the industry, conditioned by the global value chain management strategies of large transnational groups, promoted a strong shift in the production process, even entire industrial plants, and redirected production and investment flows. However, the increase in the participation of developing countries in the global product occurred quite asymmetrically when comparing the dynamism of East Asian countries with that of other countries, especially Latin Americans, in the period 1980-2000.",technological autonomy.,supply crises.,political decentralization.,economic concentration.,profit sharing.,
PID001,PID001,20251106_124958,2025-11-06 12:49:58,enem_blocks_PID01_20251106_124958.csv,/home/thiago/Documents/fnirs/simple/sessions/Sessions 05-11-25/PID001/enem_blocks_PID01_20251106_124958.csv,A5,Abstract,5,5,3,15,AbstractFirst,2022_CH_60,60,2022,CH,Abstract,Abstract,B,0.4528563111830808,89.0,4.0,22.25,"Contrary to the prevailing view about the technological impact on human relationships, the text reveals that cell phones can play a role",B,1,ANSWERED_VALID,True,2318.916963,2320.76269,2321.280959,2481.325299,1.845726999999897,0.5182690000001458,160.04433999999992,162.40833599999996,160.56260900000007,1.8248127640449434,40.60208399999999,True,True,True,True,,ITI duration: 4.02s,Abstract,abstract,2318.875812,160.04440450000402,160.044354,B,ANS_B,1,0,[],2022,CH,60,"An experiment called FunFit was developed with the aim of making members of a local community become more physically active. All study participants were linked to two other community members who would receive small cash incentives to encourage them to increase their physical activity, which was measured by accelerometers on state-issued cell phones. Thus, if the person walked more than usual, his acquaintances would receive the money. The results were astonishing: the scheme proved to be four to eight times more effective than the method of offering individual incentives.","recreational, promoting leisure in integrated networks.","social, encouraging reciprocity through digital means.","labor, converting the developer into an end user.","commercial, directing the choice for industrialized products.","cognitive, favoring virtual tools.",
PID001,PID001,20251106_124958,2025-11-06 12:49:58,enem_blocks_PID01_20251106_124958.csv,/home/thiago/Documents/fnirs/simple/sessions/Sessions 05-11-25/PID001/enem_blocks_PID01_20251106_124958.csv,C1,Concrete,1,6,1,16,AbstractFirst,2017_CH_47,47,2017,CH,Concrete,Concrete,D,0.527917465166208,62.0,2.0,31.0,"The position taken by UNESCO, from 1948 onwards, was motivated by recent events, among which the",D,1,ANSWERED_VALID,True,2511.112954,2541.790419,2551.554767,2607.804622,30.677464999999756,9.764348000000155,56.249855000000025,96.69166799999994,66.01420300000018,1.5595430322580635,48.34583399999997,True,True,True,True,,ITI duration: 3.64s,Concrete,concrete,2511.077292,56.24992149999889,56.249909,D,ANS_D,1,0,[],2017,CH,47,"After the Universal Declaration of Human Rights by the UN in 1948, UNESCO published studies by scientists from around the world that disqualified racist doctrines and demonstrated the unity of the human race. Since then, most European scientists themselves have come to recognize the discriminatory nature of the white man's alleged racial superiority and to condemn the aberrations committed in his name.",Japanese attack on the American military base at Pearl Harbor.,triggering of the Cold War and new rivalries between nations.,death of millions of soldiers in the fighting of the Second World War.,execution of Jews and Slavs imprisoned in Nazi ghettos and concentration camps.,dropping of atomic bombs on Hiroshima and Nagasaki by US forces.,
PID001,PID001,20251106_124958,2025-11-06 12:49:58,enem_blocks_PID01_20251106_124958.csv,/home/thiago/Documents/fnirs/simple/sessions/Sessions 05-11-25/PID001/enem_blocks_PID01_20251106_124958.csv,C1,Concrete,1,6,2,17,AbstractFirst,2020_CH_70,70,2020,CH,Concrete,Concrete,E,0.244848972506758,69.0,2.0,34.5,"The historical event mentioned in Sallust's text, dated 1st century BC, corresponded with the process of",E,1,ANSWERED_VALID,True,2611.543106,2640.596802,2650.2826,2720.071596,29.053695999999945,9.685797999999977,69.78899600000022,108.52849000000015,79.4747940000002,1.5728766666666687,54.264245000000074,True,True,True,True,,ITI duration: 3.20s,Concrete,concrete,2611.528528,69.78903379999974,69.789021,E,ANS_E,1,0,[],2020,CH,70,"In fact, until the destruction of Carthage, the people and the Roman Senate governed the Republic in harmony and without passion, and there was no struggle among the citizens for glory or domination; fear of the enemy kept the city in the line of duty. But as soon as fear disappeared from the minds, the evils for which prosperity has a predilection were introduced, that is, debauchery and pride.",demarcation of public lands.,imposition of debt slavery.,restriction of citizenship by kinship.,restoration of ancestral institutions.,expansion of extra-peninsular borders.,
PID001,PID001,20251106_124958,2025-11-06 12:49:58,enem_blocks_PID01_20251106_124958.csv,/home/thiago/Documents/fnirs/simple/sessions/Sessions 05-11-25/PID001/enem_blocks_PID01_20251106_124958.csv,C1,Concrete,1,6,3,18,AbstractFirst,2018_LC_44,44,2018,LC,Concrete,Concrete,D,0.2951478999067735,132.0,7.0,18.86,"According to the text, the Plagiarism Sniffer tool achieves its objective through",E,0,ANSWERED_VALID,True,2725.521144,2727.930391,2729.473817,2817.321223,2.4092470000000503,1.5434260000001814,87.84740599999986,91.8000790000001,89.39083200000005,0.6954551439393947,13.114297000000013,True,True,True,True,,ITI duration: 4.91s,Concrete,concrete,2725.494714,87.8474467000051,87.847436,E,ANS_E,1,0,[],2018,LC,44,"Plagiarism Sniffer: a tool against illegal copying. In the academic world or in the media, illegal copies can appear in different ways, being full or partial, or paraphrases. To help combat this crime, professor Maximiliano Zambonatto Pezzin, a computer engineer, developed the Plagiarism Sniffer program with his students. The program is capable of detecting: continuous and fragmented passages, loose sentences, reorganized parts of texts, rewritten sentences, changes in the order of periods and phonetic and syntactic errors. But how does the program actually work? Considering the text as a sequence of words, the tool analyzes and searches section by section in search engines, just as a teacher suspicious of a student would do. The difference is that the program allows you to search in several search engines, thus generating many more results.",selection of full copies.,search on specialized websites.,simulation of teaching activity.,comparison of structural patterns.,phoneme sequence identification.,
PID001,PID001,20251106_124958,2025-11-06 12:49:58,enem_blocks_PID01_20251106_124958.csv,/home/thiago/Documents/fnirs/simple/sessions/Sessions 05-11-25/PID001/enem_blocks_PID01_20251106_124958.csv,C2,Concrete,2,7,1,19,AbstractFirst,2020_CH_82,82,2020,CH,Concrete,Concrete,A,0.4406437691929831,105.0,7.0,15.0,The physical characteristic that justifies human settlement in the places presented in the text is the occurrence of,E,0,ANSWERED_VALID,True,2932.203016,2961.159183,2985.213821,3009.492071,28.956167000000278,24.054637999999613,24.2782500000003,77.28905500000019,48.33288799999991,0.7360862380952399,11.041293571428598,True,True,True,True,,ITI duration: 3.02s,Concrete,concrete,2932.17712,24.278294300005655,24.278281,E,ANS_E,1,0,[],2020,CH,82,"The cities of Puebla, Mexico, and Legazpi, the Philippines, have almost nothing in common. They are very far from each other and are inhabited by very different people. What unites them is a tragic detail of their geography. They were built in the vicinity of some of the most dangerous volcanoes in the world: the Mexican Popocatepéti and the Philippine Mayon. Its inhabitants need to be ready to run at any time. They are part of the 550 million individuals who live in volcanic risk zones in the world. Contrary to what would be sensible, they remain there, indifferent to the danger that awaits them.",only fertile soils.,steep slopes.,diverse vegetation.,efficient drainage.,pleasant climate.,
PID001,PID001,20251106_124958,2025-11-06 12:49:58,enem_blocks_PID01_20251106_124958.csv,/home/thiago/Documents/fnirs/simple/sessions/Sessions 05-11-25/PID001/enem_blocks_PID01_20251106_124958.csv,C2,Concrete,2,7,2,20,AbstractFirst,2017_CH_75,75,2017,CH,Concrete,Concrete,D,0.1964736904113095,109.0,4.0,27.25,The aforementioned UN resolution endorsed the,A,0,ANSWERED_VALID,True,3014.981564,3017.946372,3018.455557,3134.570382,2.9648079999997208,0.5091850000003433,116.11482499999966,119.58881799999972,116.62401,1.0971451192660524,29.89720449999993,True,True,True,True,,ITI duration: 4.96s,Concrete,concrete,3014.964429,116.11486630000581,116.114854,A,ANS_A,1,0,[],2017,CH,75,"Palestinians gathered in front of television sets and screens set up outdoors in Ramallah, in the West Bank, to follow the vote on the resolution that called for the recognition of the so-called Palestine as an non-member observer state of the United Nations (UN). The objective was to wait for the birth, at least formally, of a Palestinian State. After the approval of the resolution, hundreds of people went to the city square with Palestinian flags, set off fireworks, honked horns and danced in the streets. Approved with 138 votes out of 193 in the General Assembly, the resolution elevates the status of the Palestinian State before the organization.",institutional delimitation of territorial borders.,increasing the quality of life of the local population.,implementation of the peace treaty with the Israelis.,support from the international community to the national demand.,equalization of the political condition with that of other countries.,
PID001,PID001,20251106_124958,2025-11-06 12:49:58,enem_blocks_PID01_20251106_124958.csv,/home/thiago/Documents/fnirs/simple/sessions/Sessions 05-11-25/PID001/enem_blocks_PID01_20251106_124958.csv,C2,Concrete,2,7,3,21,AbstractFirst,2017_CH_68,68,2017,CH,Concrete,Concrete,A,0.2069303968327291,49.0,1.0,49.0,The described process occurs in a biogeographic area with a predominance of vegetation,C,0,ANSWERED_VALID,True,3139.255931,3140.962193,3141.425511,3209.777087,1.7062619999996969,0.46331800000007206,68.35157600000002,70.52115599999979,68.8148940000001,1.439207265306118,70.52115599999979,True,True,True,True,,ITI duration: 4.15s,Concrete,concrete,3139.244589,68.35163509999984,68.351625,C,ANS_C,1,0,[],2017,CH,68,"By destroying a landscape of trees with twisted trunks, leaves and rough shrubs on acidic soils, often laterized or taken on by the bizarre shapes of termite mounds, this modernization linearizes and apparently does not allow us to question the modernist pretension that the form must follow the function.",tropophilic and tropical climate.,xerophilic and semi-arid climate.,hydrophilic and equatorial climate.,aciculifoliate and subtropical climate.,semi-deciduous and humid tropical climate.,
PID001,PID001,20251106_124958,2025-11-06 12:49:58,enem_blocks_PID01_20251106_124958.csv,/home/thiago/Documents/fnirs/simple/sessions/Sessions 05-11-25/PID001/enem_blocks_PID01_20251106_124958.csv,C3,Concrete,3,8,1,22,AbstractFirst,2020_CH_56,56,2020,CH,Concrete,Concrete,D,0.4830001778034939,29.0,2.0,14.5,"In order to reduce pressure on the aforementioned natural resource, the expansion of agriculture demands improvements in the",D,1,ANSWERED_VALID,True,3354.207071,3355.977734,3356.472549,3431.941555,1.7706630000002406,0.4948150000000169,75.46900599999981,77.73448400000007,75.96382099999983,2.680499448275864,38.86724200000003,True,True,True,True,,ITI duration: 3.61s,Concrete,concrete,3354.194068,75.46914699999616,75.469137,D,ANS_D,1,0,[],2020,CH,56,"Global demand for food production is progressively increasing at very high rates. Currently, in most countries, continents and regions, water consumed in agriculture is around 70% of total availability.",chemical soil fertilization.,water runoff from the land.,maintenance of artesian wells.,efficiency of irrigation techniques.,speed of harvesting machines.,
PID001,PID001,20251106_124958,2025-11-06 12:49:58,enem_blocks_PID01_20251106_124958.csv,/home/thiago/Documents/fnirs/simple/sessions/Sessions 05-11-25/PID001/enem_blocks_PID01_20251106_124958.csv,C3,Concrete,3,8,2,23,AbstractFirst,2021_CH_76,76,2021,CH,Concrete,Concrete,B,0.1797999836750338,86.0,5.0,17.2,The behavior of this religious man demonstrates a concern with the characteristics assumed by the Church and with the social inequalities shared in his time by,C,0,ANSWERED_VALID,True,3436.93357,3438.999679,3439.492961,3520.393184,2.0661089999998694,0.4932819999999083,80.9002230000001,83.45961399999987,81.393505,0.9704606279069753,16.691922799999976,True,True,True,True,,ITI duration: 4.46s,Concrete,concrete,3436.91388,80.90036299999338,80.900353,C,ANS_C,1,0,[],2021,CH,76,"Since the 12th century, Western Christianity was agitated by the challenge posed by profane culture – that of chivalric romances, but also the folk culture of peasants and equally that of city dwellers, of a more legal nature – to ecclesiastical culture, whose vehicle was Latin. . Francisco de Assis came to change the situation, offering his listeners a message accessible to everyone and, at the same time, ennobling the vulgar language through its use in religion.
VAUCHEZ, A. The spirituality of the Western Middle Ages, 8th–13th centuries.",feudal lords.,heretical movements.,members of the Crusades.,craft corporations.,medieval universities.,
PID001,PID001,20251106_124958,2025-11-06 12:49:58,enem_blocks_PID01_20251106_124958.csv,/home/thiago/Documents/fnirs/simple/sessions/Sessions 05-11-25/PID001/enem_blocks_PID01_20251106_124958.csv,C3,Concrete,3,8,3,24,AbstractFirst,2021_LC_26,26,2021,LC,Concrete,Concrete,D,0.3092108298406186,190.0,9.0,21.11,"Considering the operations of retrieving information from the text, there is interdependence between the expressions",E,0,ANSWERED_VALID,True,3525.802996,3527.886606,3534.271791,3683.050604,2.083610000000135,6.385185000000092,148.7788129999999,157.24760800000013,155.163998,0.8276189894736848,17.47195644444446,True,True,True,True,,ITI duration: 4.86s,Concrete,concrete,3525.766839,148.77885319999768,148.778838,E,ANS_E,1,0,[],2021,LC,26,"The old papers, when not consumed by fire, sometimes awaken from their sleep to tell news of the past.
This is how you discover something new from an old name, about which you thought you knew everything, like Machado de Assis.
For example, you probably don't know that the Rio de Janeiro author, who died in 1908, wrote lyrics for the national anthem in 1867 — and you couldn't really know, because the verses were still unpublished. Until today.
These lyrics have just been discovered, in an old newspaper in Florianópolis, by independent researcher Felipe Rissato.
“From the forests in which I live/ I release a manly song:/ In honor and glory of Pedro/ The giant of Brazil”, says the beginning of the hymn, composed of seven stanzas in heptasyllabic verse, that is, verses of seven poetic syllables. The excerpt is also the song's chorus.
The Pedro mentioned is Emperor Dom Pedro II. The wizard from Cosme Velho composed the lyrics for the monarch's 42nd birthday, on December 2 of that year — the anthem would be performed that day at the theater in the city of Desterro, formerly known as Florianópolis.","""The old papers"" and ""It's like that"".","""something new"" and ""about which.""",“an old name” and “For example.”,"""The Giant of Brazil"" and ""The Mentioned Pedro.""","""the emperor Dom Pedro II"" and ""The wizard of Cosme Velho"".",
PID001,PID001,20251106_124958,2025-11-06 12:49:58,enem_blocks_PID01_20251106_124958.csv,/home/thiago/Documents/fnirs/simple/sessions/Sessions 05-11-25/PID001/enem_blocks_PID01_20251106_124958.csv,C4,Concrete,4,9,1,25,AbstractFirst,2020_CH_59,59,2020,CH,Concrete,Concrete,C,0.4582523423350119,68.0,4.0,17.0,The geological structures indicated in the text are economically important for Brazil as they concentrate,C,1,ANSWERED_VALID,True,3778.356946,3779.794879,3780.25648,3872.772277,1.4379330000001573,0.4616009999999733,92.51579700000002,94.41533100000015,92.977398,1.3884607500000021,23.603832750000038,True,True,True,True,,ITI duration: 4.85s,Concrete,concrete,3778.343623,92.51583399999072,92.515818,C,ANS_C,1,0,[],2020,CH,59,"Ancient shields or crystalline massifs are immense blocks of ancient rocks. These shields are made up of crystalline rocks (magmatic-plutonic), formed in Precambrian eras, or metamorphic rocks (sedimentary material) from the Paleozoic. They are resistant, stable, but quite worn. They correspond to 36% of the territorial area and are divided into two large portions: the Guiana Shield (northern Amazon Plain) and the Brazilian Shield (central-eastern portion of Brazil).",hot springs.,rock salt outcrops.,deposits of metallic minerals.,agricultural limestone deposits.,fossil fuel reserves.,
PID001,PID001,20251106_124958,2025-11-06 12:49:58,enem_blocks_PID01_20251106_124958.csv,/home/thiago/Documents/fnirs/simple/sessions/Sessions 05-11-25/PID001/enem_blocks_PID01_20251106_124958.csv,C4,Concrete,4,9,2,26,AbstractFirst,2020_CH_84,84,2020,CH,Concrete,Concrete,E,0.217985576821657,58.0,1.0,58.0,Which physiographic feature is generated by the tectonic process presented?,E,1,ANSWERED_VALID,True,3877.670898,3879.945594,3880.40575,3945.027225,2.274695999999949,0.46015600000009727,64.62147499999992,67.35632699999996,65.08163100000002,1.1613159827586201,67.35632699999996,True,True,True,True,,ITI duration: 4.37s,Concrete,concrete,3877.66134,64.62151720000838,64.621505,E,ANS_E,1,0,[],2020,CH,84,"The collision between a continental and an oceanic plate will cause the subduction of the latter under the continental plate, which, like arcs and islands, will produce a magmatic arc at the edge of the continent, composed of volcanic rocks accompanied by deformations and metamorphism of both pre-existing rocks and part of the rocks formed in the process.",Abyssal plains.,Crystalline plateaus.,Absolute depressions.,Sedimentary basins.,Modern folds.,
PID001,PID001,20251106_124958,2025-11-06 12:49:58,enem_blocks_PID01_20251106_124958.csv,/home/thiago/Documents/fnirs/simple/sessions/Sessions 05-11-25/PID001/enem_blocks_PID01_20251106_124958.csv,C4,Concrete,4,9,3,27,AbstractFirst,2020_CH_78,78,2020,CH,Concrete,Concrete,C,0.3834166598860249,28.0,1.0,28.0,"The organizational characteristic of the model in question, required in the crisis context, was the",B,0,ANSWERED_VALID,True,3948.628644,3950.002095,3950.479371,4010.54965,1.3734509999999318,0.4772760000000744,60.07027900000003,61.921006000000034,60.5475550000001,2.2114645000000013,61.921006000000034,True,True,True,True,,ITI duration: 3.07s,Concrete,concrete,3948.617476,60.07031900000584,60.07031,B,ANS_B,1,0,[],2020,CH,78,"“Toyotism, from the 1970s onwards, had a great impact on the Western world, when it appeared to advanced countries as a possible option for overcoming an accumulation crisis.”",expansion of large stocks.,increase in mass manufacturing.,adequacy of production to demand.,increased mechanization of work.,centralization of planning stages.,
PID001,PID001,20251106_124958,2025-11-06 12:49:58,enem_blocks_PID01_20251106_124958.csv,/home/thiago/Documents/fnirs/simple/sessions/Sessions 05-11-25/PID001/enem_blocks_PID01_20251106_124958.csv,C5,Concrete,5,10,1,28,AbstractFirst,2017_CH_69,69,2017,CH,Concrete,Concrete,E,0.283977091362474,62.0,4.0,15.5,"The territorialization of a production unit depends on several locational factors. From reading the text, the determining factor for the installation of oil refineries is the proximity to",D,0,ANSWERED_VALID,True,4200.556613,4202.495299,4203.028254,4277.140507,1.9386860000004162,0.5329549999996743,74.11225300000024,76.58389400000033,74.64520799999991,1.2352240967741988,19.145973500000082,True,True,True,True,,ITI duration: 3.88s,Concrete,concrete,4200.542567,74.11228929999925,74.112276,D,ANS_D,1,0,[],2017,CH,69,"The installation of a refinery follows several technical factors. One of the most important is the location, which must be close to both consumption centers and production areas. Petrobras has refineries strategically distributed across the country. They are responsible for processing millions of barrels of oil per day, supplying the market with derivatives that can be obtained from national or imported oil.",headquarters of petrochemical companies.,derivative import zones,technological development hubs.,areas of labor agglomerations.,spaces with circulation infrastructure.,
PID001,PID001,20251106_124958,2025-11-06 12:49:58,enem_blocks_PID01_20251106_124958.csv,/home/thiago/Documents/fnirs/simple/sessions/Sessions 05-11-25/PID001/enem_blocks_PID01_20251106_124958.csv,C5,Concrete,5,10,2,29,AbstractFirst,2018_CH_77,77,2018,CH,Concrete,Concrete,D,0.2103828048416349,50.0,1.0,50.0,Which climate type favors the soil change process described in the text?,A,0,ANSWERED_VALID,True,4281.910299,4283.265635,4283.662905,4330.065987,1.3553359999996246,0.3972700000003897,46.40308199999981,48.15568799999983,46.8003520000002,0.9631137599999966,48.15568799999983,True,True,True,True,,ITI duration: 4.24s,Concrete,concrete,4281.89698,46.403123800002504,46.403115,A,ANS_A,1,0,[],2018,CH,77,"The presumption that the surface of the Chapadas and Chapadões represents an old peneplain is corroborated by the fact that it is covered by surface accumulations, such as masses of sand, layers of gravel and pebbles, and the widespread occurrence of ferruginous concretions that form a lateritic crust, called “canga”.","Arid, with water deficit.","Subtropical, with low temperatures.","Temperate, with cold and dry winters.","Tropical, with seasonality of rain.","Equatorial, with abundant rainfall.",
PID001,PID001,20251106_124958,2025-11-06 12:49:58,enem_blocks_PID01_20251106_124958.csv,/home/thiago/Documents/fnirs/simple/sessions/Sessions 05-11-25/PID001/enem_blocks_PID01_20251106_124958.csv,C5,Concrete,5,10,3,30,AbstractFirst,2021_CH_46,46,2021,CH,Concrete,Concrete,B,0.5713472000908519,65.0,5.0,13.0,"The text indicates practical, everyday work relationships that result in the individual's",A,0,ANSWERED_VALID,True,4334.736551,4336.140874,4336.618881,4399.237486,1.4043229999997493,0.47800700000061624,62.61860499999966,64.50093500000003,63.09661200000028,0.9923220769230774,12.900187000000006,True,True,True,True,,ITI duration: 4.13s,Concrete,concrete,4334.721934,62.61864789998799,62.618635,A,ANS_A,1,0,[],2021,CH,46,"Your work shift is over, you're home and it's time for family dinner. But instead of relaxing, you start thinking about the possibility that you received an important message in your professional email or company WhatsApp group. Immediately, you become distant. Moments later, with a few taps on your cell phone screen, you are back at your work environment. Dinner and family took a backseat.",protection of private life.,expansion of extra activities.,increase in bureaucratic steps.,diversification of recreational leisure.,release from household chores.,
PID002,PID002,20251106_162601,2025-11-06 16:26:01,enem_blocks_PID002_20251106_162601.csv,/home/thiago/Documents/fnirs/simple/sessions/Sessions 05-11-25/PID002/enem_blocks_PID002_20251106_162601.csv,C1,Concrete,1,1,1,1,ConcreteFirst,2018_CH_77,77,2018,CH,Concrete,Concrete,D,0.2103828048416349,50.0,1.0,50.0,Which climate type favors the soil change process described in the text?,C,0,ANSWERED_VALID,True,236.635434,254.181098,258.938196,294.549015,17.545663999999988,4.757098000000013,35.61081899999999,57.91358099999999,40.367917000000006,1.1582716199999998,57.91358099999999,True,True,True,True,,ITI duration: 3.11s,Concrete,concrete,236.614603,35.61085000000003,35.610828,C,ANS_C,1,0,[],2018,CH,77,"The presumption that the surface of the Chapadas and Chapadões represents an old peneplain is corroborated by the fact that it is covered by surface accumulations, such as masses of sand, layers of gravel and pebbles, and the widespread occurrence of ferruginous concretions that form a lateritic crust, called “canga”.","Arid, with water deficit.","Subtropical, with low temperatures.","Temperate, with cold and dry winters.","Tropical, with seasonality of rain.","Equatorial, with abundant rainfall.",
PID002,PID002,20251106_162601,2025-11-06 16:26:01,enem_blocks_PID002_20251106_162601.csv,/home/thiago/Documents/fnirs/simple/sessions/Sessions 05-11-25/PID002/enem_blocks_PID002_20251106_162601.csv,C1,Concrete,1,1,2,2,ConcreteFirst,2021_CH_76,76,2021,CH,Concrete,Concrete,B,0.1797999836750338,86.0,5.0,17.2,The behavior of this religious man demonstrates a concern with the characteristics assumed by the Church and with the social inequalities shared in his time by,A,0,ANSWERED_VALID,True,298.998132,344.7875,356.473632,444.256159,45.789368000000024,11.686131999999986,87.78252700000002,145.25802700000003,99.468659,1.6890468255813957,29.051605400000007,True,True,True,True,,ITI duration: 3.89s,Concrete,concrete,298.970101,87.78255910000007,87.782551,A,ANS_A,1,0,[],2021,CH,76,"Since the 12th century, Western Christianity was agitated by the challenge posed by profane culture – that of chivalric romances, but also the folk culture of peasants and equally that of city dwellers, of a more legal nature – to ecclesiastical culture, whose vehicle was Latin. . Francisco de Assis came to change the situation, offering his listeners a message accessible to everyone and, at the same time, ennobling the vulgar language through its use in religion.
VAUCHEZ, A. The spirituality of the Western Middle Ages, 8th–13th centuries.",feudal lords.,heretical movements.,members of the Crusades.,craft corporations.,medieval universities.,
PID002,PID002,20251106_162601,2025-11-06 16:26:01,enem_blocks_PID002_20251106_162601.csv,/home/thiago/Documents/fnirs/simple/sessions/Sessions 05-11-25/PID002/enem_blocks_PID002_20251106_162601.csv,C1,Concrete,1,1,3,3,ConcreteFirst,2020_CH_78,78,2020,CH,Concrete,Concrete,C,0.3834166598860249,28.0,1.0,28.0,"The organizational characteristic of the model in question, required in the crisis context, was the",C,1,ANSWERED_VALID,True,448.909113,458.852572,464.595008,522.69471,9.943459000000018,5.742435999999998,58.09970199999998,73.785597,63.84213799999998,2.6351998928571425,73.785597,True,True,True,True,,ITI duration: 4.13s,Concrete,concrete,448.898825,58.099734100000205,58.099707,C,ANS_C,1,0,[],2020,CH,78,"“Toyotism, from the 1970s onwards, had a great impact on the Western world, when it appeared to advanced countries as a possible option for overcoming an accumulation crisis.”",expansion of large stocks.,increase in mass manufacturing.,adequacy of production to demand.,increased mechanization of work.,centralization of planning stages.,
PID002,PID002,20251106_162601,2025-11-06 16:26:01,enem_blocks_PID002_20251106_162601.csv,/home/thiago/Documents/fnirs/simple/sessions/Sessions 05-11-25/PID002/enem_blocks_PID002_20251106_162601.csv,C2,Concrete,2,2,1,4,ConcreteFirst,2018_LC_44,44,2018,LC,Concrete,Concrete,D,0.2951478999067735,132.0,7.0,18.86,"According to the text, the Plagiarism Sniffer tool achieves its objective through",D,1,ANSWERED_VALID,True,660.252205,697.363805,700.269129,742.17728,37.11159999999995,2.905324000000064,41.908150999999975,81.92507499999999,44.81347500000004,0.6206445075757575,11.703582142857142,True,True,True,True,,ITI duration: 4.59s,Concrete,concrete,660.19761,41.90818180000042,41.908169,D,ANS_D,1,0,[],2018,LC,44,"Plagiarism Sniffer: a tool against illegal copying. In the academic world or in the media, illegal copies can appear in different ways, being full or partial, or paraphrases. To help combat this crime, professor Maximiliano Zambonatto Pezzin, a computer engineer, developed the Plagiarism Sniffer program with his students. The program is capable of detecting: continuous and fragmented passages, loose sentences, reorganized parts of texts, rewritten sentences, changes in the order of periods and phonetic and syntactic errors. But how does the program actually work? Considering the text as a sequence of words, the tool analyzes and searches section by section in search engines, just as a teacher suspicious of a student would do. The difference is that the program allows you to search in several search engines, thus generating many more results.",selection of full copies.,search on specialized websites.,simulation of teaching activity.,comparison of structural patterns.,phoneme sequence identification.,
PID002,PID002,20251106_162601,2025-11-06 16:26:01,enem_blocks_PID002_20251106_162601.csv,/home/thiago/Documents/fnirs/simple/sessions/Sessions 05-11-25/PID002/enem_blocks_PID002_20251106_162601.csv,C2,Concrete,2,2,2,5,ConcreteFirst,2020_CH_70,70,2020,CH,Concrete,Concrete,E,0.244848972506758,69.0,2.0,34.5,"The historical event mentioned in Sallust's text, dated 1st century BC, corresponded with the process of",E,1,ANSWERED_VALID,True,747.617283,779.835341,784.719389,842.52793,32.21805799999993,4.884048000000007,57.80854099999999,94.91064699999993,62.692589,1.3755166231884046,47.45532349999996,True,True,True,True,,ITI duration: 4.91s,Concrete,concrete,747.601931,57.808573199999955,57.808552,E,ANS_E,1,0,[],2020,CH,70,"In fact, until the destruction of Carthage, the people and the Roman Senate governed the Republic in harmony and without passion, and there was no struggle among the citizens for glory or domination; fear of the enemy kept the city in the line of duty. But as soon as fear disappeared from the minds, the evils for which prosperity has a predilection were introduced, that is, debauchery and pride.",demarcation of public lands.,imposition of debt slavery.,restriction of citizenship by kinship.,restoration of ancestral institutions.,expansion of extra-peninsular borders.,
PID002,PID002,20251106_162601,2025-11-06 16:26:01,enem_blocks_PID002_20251106_162601.csv,/home/thiago/Documents/fnirs/simple/sessions/Sessions 05-11-25/PID002/enem_blocks_PID002_20251106_162601.csv,C2,Concrete,2,2,3,6,ConcreteFirst,2021_CH_46,46,2021,CH,Concrete,Concrete,B,0.5713472000908519,65.0,5.0,13.0,"The text indicates practical, everyday work relationships that result in the individual's",B,1,ANSWERED_VALID,True,846.563047,861.037795,865.109555,950.944717,14.474747999999977,4.07176000000004,85.83516199999997,104.38166999999999,89.90692200000001,1.605871846153846,20.876333999999996,True,True,True,True,,ITI duration: 3.50s,Concrete,concrete,846.550999,85.83519879999949,85.835176,B,ANS_B,1,0,[],2021,CH,46,"Your work shift is over, you're home and it's time for family dinner. But instead of relaxing, you start thinking about the possibility that you received an important message in your professional email or company WhatsApp group. Immediately, you become distant. Moments later, with a few taps on your cell phone screen, you are back at your work environment. Dinner and family took a backseat.",protection of private life.,expansion of extra activities.,increase in bureaucratic steps.,diversification of recreational leisure.,release from household chores.,
PID002,PID002,20251106_162601,2025-11-06 16:26:01,enem_blocks_PID002_20251106_162601.csv,/home/thiago/Documents/fnirs/simple/sessions/Sessions 05-11-25/PID002/enem_blocks_PID002_20251106_162601.csv,C3,Concrete,3,3,1,7,ConcreteFirst,2021_LC_26,26,2021,LC,Concrete,Concrete,D,0.3092108298406186,190.0,9.0,21.11,"Considering the operations of retrieving information from the text, there is interdependence between the expressions",E,0,ANSWERED_VALID,True,1081.078552,1143.77409,1150.911748,1268.460309,62.69553799999994,7.137658000000101,117.54856100000006,187.3817570000001,124.68621900000016,0.9862197736842111,20.820195222222235,True,True,True,True,,ITI duration: 4.36s,Concrete,concrete,1081.048519,117.54859199999919,117.548572,E,ANS_E,1,0,[],2021,LC,26,"The old papers, when not consumed by fire, sometimes awaken from their sleep to tell news of the past.
This is how you discover something new from an old name, about which you thought you knew everything, like Machado de Assis.
For example, you probably don't know that the Rio de Janeiro author, who died in 1908, wrote lyrics for the national anthem in 1867 — and you couldn't really know, because the verses were still unpublished. Until today.
These lyrics have just been discovered, in an old newspaper in Florianópolis, by independent researcher Felipe Rissato.
“From the forests in which I live/ I release a manly song:/ In honor and glory of Pedro/ The giant of Brazil”, says the beginning of the hymn, composed of seven stanzas in heptasyllabic verse, that is, verses of seven poetic syllables. The excerpt is also the song's chorus.
The Pedro mentioned is Emperor Dom Pedro II. The wizard from Cosme Velho composed the lyrics for the monarch's 42nd birthday, on December 2 of that year — the anthem would be performed that day at the theater in the city of Desterro, formerly known as Florianópolis.","""The old papers"" and ""It's like that"".","""something new"" and ""about which.""",“an old name” and “For example.”,"""The Giant of Brazil"" and ""The Mentioned Pedro.""","""the emperor Dom Pedro II"" and ""The wizard of Cosme Velho"".",
PID002,PID002,20251106_162601,2025-11-06 16:26:01,enem_blocks_PID002_20251106_162601.csv,/home/thiago/Documents/fnirs/simple/sessions/Sessions 05-11-25/PID002/enem_blocks_PID002_20251106_162601.csv,C3,Concrete,3,3,2,8,ConcreteFirst,2017_CH_47,47,2017,CH,Concrete,Concrete,D,0.527917465166208,62.0,2.0,31.0,"The position taken by UNESCO, from 1948 onwards, was motivated by recent events, among which the",D,1,ANSWERED_VALID,True,1273.272791,1289.199441,1293.917086,1319.70241,15.926649999999881,4.717644999999948,25.785324000000173,46.429619,30.50296900000012,0.7488648225806452,23.2148095,True,True,True,True,,ITI duration: 4.22s,Concrete,concrete,1273.200361,25.78537469999901,25.785367,D,ANS_D,1,0,[],2017,CH,47,"After the Universal Declaration of Human Rights by the UN in 1948, UNESCO published studies by scientists from around the world that disqualified racist doctrines and demonstrated the unity of the human race. Since then, most European scientists themselves have come to recognize the discriminatory nature of the white man's alleged racial superiority and to condemn the aberrations committed in his name.",Japanese attack on the American military base at Pearl Harbor.,triggering of the Cold War and new rivalries between nations.,death of millions of soldiers in the fighting of the Second World War.,execution of Jews and Slavs imprisoned in Nazi ghettos and concentration camps.,dropping of atomic bombs on Hiroshima and Nagasaki by US forces.,
PID002,PID002,20251106_162601,2025-11-06 16:26:01,enem_blocks_PID002_20251106_162601.csv,/home/thiago/Documents/fnirs/simple/sessions/Sessions 05-11-25/PID002/enem_blocks_PID002_20251106_162601.csv,C3,Concrete,3,3,3,9,ConcreteFirst,2020_CH_59,59,2020,CH,Concrete,Concrete,C,0.4582523423350119,68.0,4.0,17.0,The geological structures indicated in the text are economically important for Brazil as they concentrate,C,1,ANSWERED_VALID,True,1323.545867,1347.758431,1351.847249,1388.659063,24.21256399999993,4.0888179999999466,36.81181400000014,65.11319600000002,40.90063200000009,0.9575470000000003,16.278299000000004,True,True,True,True,,ITI duration: 3.31s,Concrete,concrete,1323.52706,36.81184799999937,36.811835,C,ANS_C,1,0,[],2020,CH,59,"Ancient shields or crystalline massifs are immense blocks of ancient rocks. These shields are made up of crystalline rocks (magmatic-plutonic), formed in Precambrian eras, or metamorphic rocks (sedimentary material) from the Paleozoic. They are resistant, stable, but quite worn. They correspond to 36% of the territorial area and are divided into two large portions: the Guiana Shield (northern Amazon Plain) and the Brazilian Shield (central-eastern portion of Brazil).",hot springs.,rock salt outcrops.,deposits of metallic minerals.,agricultural limestone deposits.,fossil fuel reserves.,
PID002,PID002,20251106_162601,2025-11-06 16:26:01,enem_blocks_PID002_20251106_162601.csv,/home/thiago/Documents/fnirs/simple/sessions/Sessions 05-11-25/PID002/enem_blocks_PID002_20251106_162601.csv,C4,Concrete,4,4,1,10,ConcreteFirst,2017_CH_75,75,2017,CH,Concrete,Concrete,D,0.1964736904113095,109.0,4.0,27.25,The aforementioned UN resolution endorsed the,E,0,ANSWERED_VALID,True,1503.359638,1534.628126,1536.441715,1592.994012,31.26848800000016,1.8135889999998653,56.55229700000018,89.63437400000021,58.365886000000046,0.8223337064220202,22.408593500000052,True,True,True,True,,ITI duration: 4.51s,Concrete,concrete,1503.283396,56.55233419999968,56.552314,E,ANS_E,1,0,[],2017,CH,75,"Palestinians gathered in front of television sets and screens set up outdoors in Ramallah, in the West Bank, to follow the vote on the resolution that called for the recognition of the so-called Palestine as an non-member observer state of the United Nations (UN). The objective was to wait for the birth, at least formally, of a Palestinian State. After the approval of the resolution, hundreds of people went to the city square with Palestinian flags, set off fireworks, honked horns and danced in the streets. Approved with 138 votes out of 193 in the General Assembly, the resolution elevates the status of the Palestinian State before the organization.",institutional delimitation of territorial borders.,increasing the quality of life of the local population.,implementation of the peace treaty with the Israelis.,support from the international community to the national demand.,equalization of the political condition with that of other countries.,
PID002,PID002,20251106_162601,2025-11-06 16:26:01,enem_blocks_PID002_20251106_162601.csv,/home/thiago/Documents/fnirs/simple/sessions/Sessions 05-11-25/PID002/enem_blocks_PID002_20251106_162601.csv,C4,Concrete,4,4,2,11,ConcreteFirst,2020_CH_84,84,2020,CH,Concrete,Concrete,E,0.217985576821657,58.0,1.0,58.0,Which physiographic feature is generated by the tectonic process presented?,E,1,ANSWERED_VALID,True,1596.795871,1619.735053,1625.153197,1676.41375,22.939182000000073,5.418143999999984,51.260552999999845,79.6178789999999,56.67869699999983,1.3727220517241363,79.6178789999999,True,True,True,True,,ITI duration: 3.28s,Concrete,concrete,1596.785919,51.260588400000415,51.260567,E,ANS_E,1,0,[],2020,CH,84,"The collision between a continental and an oceanic plate will cause the subduction of the latter under the continental plate, which, like arcs and islands, will produce a magmatic arc at the edge of the continent, composed of volcanic rocks accompanied by deformations and metamorphism of both pre-existing rocks and part of the rocks formed in the process.",Abyssal plains.,Crystalline plateaus.,Absolute depressions.,Sedimentary basins.,Modern folds.,
PID002,PID002,20251106_162601,2025-11-06 16:26:01,enem_blocks_PID002_20251106_162601.csv,/home/thiago/Documents/fnirs/simple/sessions/Sessions 05-11-25/PID002/enem_blocks_PID002_20251106_162601.csv,C4,Concrete,4,4,3,12,ConcreteFirst,2020_CH_82,82,2020,CH,Concrete,Concrete,A,0.4406437691929831,105.0,7.0,15.0,The physical characteristic that justifies human settlement in the places presented in the text is the occurrence of,A,1,ANSWERED_VALID,True,1680.58828,1723.220491,1727.508301,1742.303168,42.6322110000001,4.287810000000036,14.79486699999984,61.71488799999997,19.082676999999876,0.5877608380952378,8.816412571428568,True,True,True,True,,ITI duration: 3.64s,Concrete,concrete,1680.570263,14.794899499998792,14.794876,A,ANS_A,1,0,[],2020,CH,82,"The cities of Puebla, Mexico, and Legazpi, the Philippines, have almost nothing in common. They are very far from each other and are inhabited by very different people. What unites them is a tragic detail of their geography. They were built in the vicinity of some of the most dangerous volcanoes in the world: the Mexican Popocatepéti and the Philippine Mayon. Its inhabitants need to be ready to run at any time. They are part of the 550 million individuals who live in volcanic risk zones in the world. Contrary to what would be sensible, they remain there, indifferent to the danger that awaits them.",only fertile soils.,steep slopes.,diverse vegetation.,efficient drainage.,pleasant climate.,
PID002,PID002,20251106_162601,2025-11-06 16:26:01,enem_blocks_PID002_20251106_162601.csv,/home/thiago/Documents/fnirs/simple/sessions/Sessions 05-11-25/PID002/enem_blocks_PID002_20251106_162601.csv,C5,Concrete,5,5,1,13,ConcreteFirst,2017_CH_68,68,2017,CH,Concrete,Concrete,A,0.2069303968327291,49.0,1.0,49.0,The described process occurs in a biogeographic area with a predominance of vegetation,E,0,ANSWERED_VALID,True,1925.175204,1941.813009,1946.024476,2040.041395,16.63780500000007,4.211467000000084,94.01691899999992,114.86619100000007,98.228386,2.3442079795918382,114.86619100000007,True,True,True,True,,ITI duration: 4.67s,Concrete,concrete,1925.165709,94.0169492999994,94.016931,E,ANS_E,1,0,[],2017,CH,68,"By destroying a landscape of trees with twisted trunks, leaves and rough shrubs on acidic soils, often laterized or taken on by the bizarre shapes of termite mounds, this modernization linearizes and apparently does not allow us to question the modernist pretension that the form must follow the function.",tropophilic and tropical climate.,xerophilic and semi-arid climate.,hydrophilic and equatorial climate.,aciculifoliate and subtropical climate.,semi-deciduous and humid tropical climate.,
PID002,PID002,20251106_162601,2025-11-06 16:26:01,enem_blocks_PID002_20251106_162601.csv,/home/thiago/Documents/fnirs/simple/sessions/Sessions 05-11-25/PID002/enem_blocks_PID002_20251106_162601.csv,C5,Concrete,5,5,2,14,ConcreteFirst,2020_CH_56,56,2020,CH,Concrete,Concrete,D,0.4830001778034939,29.0,2.0,14.5,"In order to reduce pressure on the aforementioned natural resource, the expansion of agriculture demands improvements in the",D,1,ANSWERED_VALID,True,2043.855452,2051.334795,2055.455945,2074.7856,7.479343000000199,4.121149999999943,19.329655000000002,30.930148000000145,23.450804999999946,1.0665568275862118,15.465074000000072,True,True,True,True,,ITI duration: 3.28s,Concrete,concrete,2043.84757,19.32968720000099,19.329663,D,ANS_D,1,0,[],2020,CH,56,"Global demand for food production is progressively increasing at very high rates. Currently, in most countries, continents and regions, water consumed in agriculture is around 70% of total availability.",chemical soil fertilization.,water runoff from the land.,maintenance of artesian wells.,efficiency of irrigation techniques.,speed of harvesting machines.,
PID002,PID002,20251106_162601,2025-11-06 16:26:01,enem_blocks_PID002_20251106_162601.csv,/home/thiago/Documents/fnirs/simple/sessions/Sessions 05-11-25/PID002/enem_blocks_PID002_20251106_162601.csv,C5,Concrete,5,5,3,15,ConcreteFirst,2017_CH_69,69,2017,CH,Concrete,Concrete,E,0.283977091362474,62.0,4.0,15.5,"The territorialization of a production unit depends on several locational factors. From reading the text, the determining factor for the installation of oil refineries is the proximity to",D,0,ANSWERED_VALID,True,2079.858262,2101.758402,2116.83081,2173.768616,21.900139999999737,15.072407999999996,56.93780599999991,93.91035399999964,72.0102139999999,1.5146831290322522,23.47758849999991,True,True,True,True,,ITI duration: 4.55s,Concrete,concrete,2079.842483,56.937836700000844,56.937818,D,ANS_D,1,0,[],2017,CH,69,"The installation of a refinery follows several technical factors. One of the most important is the location, which must be close to both consumption centers and production areas. Petrobras has refineries strategically distributed across the country. They are responsible for processing millions of barrels of oil per day, supplying the market with derivatives that can be obtained from national or imported oil.",headquarters of petrochemical companies.,derivative import zones,technological development hubs.,areas of labor agglomerations.,spaces with circulation infrastructure.,
PID002,PID002,20251106_162601,2025-11-06 16:26:01,enem_blocks_PID002_20251106_162601.csv,/home/thiago/Documents/fnirs/simple/sessions/Sessions 05-11-25/PID002/enem_blocks_PID002_20251106_162601.csv,A1,Abstract,1,6,1,16,ConcreteFirst,2019_CH_56,56,2019,CH,Abstract,Abstract,D,0.3926106536218327,72.0,2.0,36.0,The dynamics of transformation of the geography of industries described expose the complementarity between spatial dispersion and,B,0,ANSWERED_VALID,True,2348.434359,2372.618459,2378.188092,2449.476366,24.184099999999944,5.569633000000067,71.288274,101.04200700000001,76.85790700000007,1.4033612083333336,50.521003500000006,True,True,True,True,,ITI duration: 3.10s,Abstract,abstract,2348.41641,71.28830639999978,71.288295,B,ANS_B,1,0,[],2019,CH,56,"The global restructuring of the industry, conditioned by the global value chain management strategies of large transnational groups, promoted a strong shift in the production process, even entire industrial plants, and redirected production and investment flows. However, the increase in the participation of developing countries in the global product occurred quite asymmetrically when comparing the dynamism of East Asian countries with that of other countries, especially Latin Americans, in the period 1980-2000.",technological autonomy.,supply crises.,political decentralization.,economic concentration.,profit sharing.,
PID002,PID002,20251106_162601,2025-11-06 16:26:01,enem_blocks_PID002_20251106_162601.csv,/home/thiago/Documents/fnirs/simple/sessions/Sessions 05-11-25/PID002/enem_blocks_PID002_20251106_162601.csv,A1,Abstract,1,6,2,17,ConcreteFirst,2021_CH_65,65,2021,CH,Abstract,Abstract,A,0.6866014614393652,70.0,3.0,23.33,"In the text, the author presents ethical guidelines that correspond to the",A,1,ANSWERED_VALID,True,2454.332249,2479.881627,2483.107927,2507.233679,25.54937800000016,3.22629999999981,24.12575199999992,52.90142999999989,27.35205199999973,0.7557347142857127,17.633809999999965,True,True,True,True,,ITI duration: 4.32s,Abstract,abstract,2454.316361,24.125790100000813,24.125767,A,ANS_A,1,0,[],2021,CH,65,"At the same time, thanks to the ample opportunities I had to observe the middle class, your adversary, I quickly concluded that you are right, entirely right, in not expecting any help from them. Their interests are diametrically opposed to yours, even if she incessantly seeks to affirm the opposite and wants to persuade you that they feel the greatest sympathy for your fate. But their actions belie her words.",class struggle concept.,foundation of the idea of ​​surplus value.,foundations of the scientific method.,paradigms of the inquiry process.,domains of commodity fetishism.,
PID002,PID002,20251106_162601,2025-11-06 16:26:01,enem_blocks_PID002_20251106_162601.csv,/home/thiago/Documents/fnirs/simple/sessions/Sessions 05-11-25/PID002/enem_blocks_PID002_20251106_162601.csv,A1,Abstract,1,6,3,18,ConcreteFirst,2020_CH_77,77,2020,CH,Abstract,Abstract,A,0.2928950929249277,79.0,1.0,79.0,"In the fragment, Aristotle promotes a reflection that associates two essential elements to the discussion about community life, namely:",A,1,ANSWERED_VALID,True,2511.009058,2546.857205,2552.849294,2604.701778,35.8481469999997,5.9920890000003055,51.852484000000004,93.69272000000001,57.84457300000031,1.1859837974683545,93.69272000000001,True,True,True,True,,ITI duration: 3.23s,Abstract,abstract,2510.991545,51.8525152000002,51.852497,A,ANS_A,1,0,[],2020,CH,77,"We see that every city is a kind of community, and every community is formed with a view to some good, since all the actions of all men are carried out with a view to what seems to them a good; If all communities aim at some good, it is evident that the most important of them all and which includes all the others has this objective more than all and aims at the most important of all goods.","Ethics and politics, as they lead to eudaimonia.","Rhetoric and language, as they take care of the speeches in the agora.","Metaphysics and ontology, as they deal with first philosophy.","Democracy and society, as they refer to social relations.","Generation and corruption, as they encompass the field of physis.",
PID002,PID002,20251106_162601,2025-11-06 16:26:01,enem_blocks_PID002_20251106_162601.csv,/home/thiago/Documents/fnirs/simple/sessions/Sessions 05-11-25/PID002/enem_blocks_PID002_20251106_162601.csv,A2,Abstract,2,7,1,19,ConcreteFirst,2021_CH_57,57,2021,CH,Abstract,Abstract,D,0.304245910773413,44.0,2.0,22.0,"The text indicates that, in capitalism, the satisfaction of personal desires is influenced by",B,0,ANSWERED_VALID,True,2773.014943,2790.815992,2794.626543,2855.39528,17.801048999999693,3.810551000000032,60.76873700000033,82.38033700000005,64.57928800000036,1.8722803863636377,41.19016850000003,True,True,True,True,,ITI duration: 4.73s,Abstract,abstract,2772.999492,60.76876900000025,60.768756,B,ANS_B,1,0,[],2021,CH,57,"In the most highly developed sectors of contemporary society, the transplantation of social to individual needs is so effective that the difference between them appears purely theoretical. Creatures recognize themselves in their merchandise; they find their soul in their automobile, walk-up apartments, kitchen utensils.",state disclosure policies.,controlled consumption incentives.,collective organization prescriptions.,subjective identification mechanisms.,rationalized repressions of narcissism.,
PID002,PID002,20251106_162601,2025-11-06 16:26:01,enem_blocks_PID002_20251106_162601.csv,/home/thiago/Documents/fnirs/simple/sessions/Sessions 05-11-25/PID002/enem_blocks_PID002_20251106_162601.csv,A2,Abstract,2,7,2,20,ConcreteFirst,2020_CH_76,76,2020,CH,Abstract,Abstract,B,0.315717226144949,78.0,6.0,13.0,The text discusses the role played by a standard in creating an environment conducive to,B,1,ANSWERED_VALID,True,2859.565067,2888.43161,2896.738695,3006.105358,28.866543000000092,8.307084999999915,109.36666299999979,146.5402909999998,117.6737479999997,1.8787216794871768,24.4233818333333,True,True,True,True,,ITI duration: 3.64s,Abstract,abstract,2859.551766,109.36669970000003,109.366689,B,ANS_B,1,0,[],2020,CH,76,"“The main characteristic of the social situation of Anglo-Americans is its eminently democratic character. I previously stated that a very great equality reigned among the emigrants who went to settle in New England. The influence of succession laws contributed to this. Established in one way, succession laws bring together, concentrate and group property and power into one. Established by other principles, they produce the opposite: they divide, share and disseminate goods and power.”
(TOCQUEVILLE, A. Democracy in America.",use of slave labor.,consolidation of bourgeois values.,banning religious dissent.,containment of nationalist identification.,hierarchization of economic agents.,
PID002,PID002,20251106_162601,2025-11-06 16:26:01,enem_blocks_PID002_20251106_162601.csv,/home/thiago/Documents/fnirs/simple/sessions/Sessions 05-11-25/PID002/enem_blocks_PID002_20251106_162601.csv,A2,Abstract,2,7,3,21,ConcreteFirst,2021_CH_86,86,2021,CH,Abstract,Abstract,A,0.5558420311097073,60.0,1.0,60.0,"This allegorical construction of Descartes, regarding the epistemological condition of philosophy, has as its goal",A,1,ANSWERED_VALID,True,3011.207617,3043.596664,3049.965041,3104.37436,32.38904700000012,6.368376999999782,54.40931899999987,93.16674299999977,60.77769599999965,1.552779049999996,93.16674299999977,True,True,True,True,,ITI duration: 4.57s,Abstract,abstract,3011.197962,54.40935849999914,54.409342,A,ANS_A,1,0,[],2021,CH,86,"Philosophy is like a tree, whose roots are metaphysics; the trunk, physics, and the branches that come out of the trunk are all the other sciences, which are reduced to three main ones: medicine, mechanics and morals,
understanding morality as the highest and most perfect because it presupposes integral knowledge of other sciences, and is the last degree of wisdom.",sustain the essential unity of knowledge.,refute the fundamental element of beliefs.,boost speculative thinking.,welcome the experimental method.,encourage the suspension of judgments.,
PID002,PID002,20251106_162601,2025-11-06 16:26:01,enem_blocks_PID002_20251106_162601.csv,/home/thiago/Documents/fnirs/simple/sessions/Sessions 05-11-25/PID002/enem_blocks_PID002_20251106_162601.csv,A3,Abstract,3,8,1,22,ConcreteFirst,2020_LC_31,31,2020,LC,Abstract,Abstract,E,0.4478960422147685,127.0,5.0,25.4,"Due to the characteristics of the text read, which deals with the consequences of losing a pet, it is considered to fit into the genre",E,1,ANSWERED_VALID,True,3198.650038,3242.226967,3250.370905,3298.060492,43.576928999999836,8.143938000000162,47.68958699999985,99.41045399999985,55.83352500000001,0.7827594803149595,19.88209079999997,True,True,True,True,,ITI duration: 4.63s,Abstract,abstract,3198.633214,47.689632900001016,47.689605,E,ANS_E,1,0,[],2020,LC,31,"Woman has clinically broken heart after dog dies
As The New England Journal of Medicine explains, the patient, named Joanie Simpson, had signs of a heart attack, such as chest pain and high blood pressure, and had problems with her coronary arteries. When doctors performed an echocardiogram, they found the problem: Takotsubo cardiomyopathy, known as broken heart syndrome.
This medical condition typically occurs in postmenopausal women and may be preceded by a very stressful or emotional event. In these cases, the heart presents a transient dyskinetic movement of the anterior wall of the left ventricle, with accentuation of the kinetics of the ventricular base, according to a Brazilian medical article that reports a similar case. Simpson was sent home after two days and started taking regular medication.","short story, as it shows the life story of Joanie Simpson.","testimony, as it exposes the suffering of the animal's owner.","report, as it scientifically discusses cardiomyopathy.","report, as it narrates a stressful event experienced by the patient.","news, as it discloses facts about broken heart syndrome.",
PID002,PID002,20251106_162601,2025-11-06 16:26:01,enem_blocks_PID002_20251106_162601.csv,/home/thiago/Documents/fnirs/simple/sessions/Sessions 05-11-25/PID002/enem_blocks_PID002_20251106_162601.csv,A3,Abstract,3,8,2,23,ConcreteFirst,2022_CH_51,51,2022,CH,Abstract,Abstract,E,0.2543846345770937,91.0,5.0,18.2,What structural change is the result of the form of economic organization described in the text?,E,1,ANSWERED_VALID,True,3303.381227,3329.5495,3336.741079,3381.413869,26.168273000000227,7.19157899999982,44.67279000000008,78.03264200000012,51.8643689999999,0.8575015604395618,15.606528400000025,True,True,True,True,,ITI duration: 4.78s,Abstract,abstract,3303.365652,44.67283429999952,44.672826,E,ANS_E,1,0,[],2022,CH,51,"A new economy emerged on a global scale in the last quarter of the 20th century. I call it informational, to identify its fundamental and differentiated global and network characteristics and emphasize their interconnection. It is informational because it basically depends on its ability to efficiently generate, process and apply knowledge-based information. It is global because its components are organized on a global scale, directly or through a network of connections between economic agents. It is a network because it is based on a global network of interactions between business networks.",Series manufacturing.,Expansion of stocks.,Weakening of cartels.,Standardization of goods.,Deterritorialization of production.,
PID002,PID002,20251106_162601,2025-11-06 16:26:01,enem_blocks_PID002_20251106_162601.csv,/home/thiago/Documents/fnirs/simple/sessions/Sessions 05-11-25/PID002/enem_blocks_PID002_20251106_162601.csv,A3,Abstract,3,8,3,24,ConcreteFirst,2022_CH_47,47,2022,CH,Abstract,Abstract,E,0.4736677315356127,114.0,4.0,28.5,"In the excerpt, philosopher Hannah Arendt shows the importance of language in the process of",E,1,ANSWERED_VALID,True,3385.617866,3425.63587,3429.491251,3503.477199,40.01800400000002,3.855380999999852,73.98594800000001,117.85933299999988,77.84132899999986,1.033853798245613,29.46483324999997,True,True,True,True,,ITI duration: 3.67s,Abstract,abstract,3385.603495,73.98599800000011,73.985988,E,ANS_E,1,0,[],2022,CH,47,"Whenever the relevance of speech comes into play, the issue becomes political by definition, as it is speech that makes man a political being. And everything that men do, know or experience only makes sense to the extent that it can be discussed. There will, perhaps, be truths that go beyond language and that can be of great relevance to man in the singular, that is, to man who, whatever he may be, is not a political being. But men in the plural, that is, men who live and move and act in this world, can only experience the meaning of things because they can speak and be intelligible among themselves and with themselves.",understanding of culture.,increased creativity.,perception of individuality.,improvement of technique.,construction of sociability.,
PID002,PID002,20251106_162601,2025-11-06 16:26:01,enem_blocks_PID002_20251106_162601.csv,/home/thiago/Documents/fnirs/simple/sessions/Sessions 05-11-25/PID002/enem_blocks_PID002_20251106_162601.csv,A4,Abstract,4,9,1,25,ConcreteFirst,2019_CH_64,64,2019,CH,Abstract,Abstract,C,0.604244682645566,107.0,11.0,9.73,"In contrast to an idealized interpretation, the text points to the following fundamental dimension of modern science:",A,0,ANSWERED_VALID,True,3620.08807,3650.250729,3656.500521,3717.661803,30.162659000000076,6.24979200000007,61.16128200000003,97.57373300000017,67.4110740000001,0.9119040467289736,8.87033936363638,True,True,True,True,,ITI duration: 3.80s,Abstract,abstract,3620.067086,61.16131469999891,61.161294,A,ANS_A,1,0,[],2019,CH,64,"Legend has it that on a beautiful sunny day, Newton was relaxing under an apple tree. Birds chirped in his ears. There was a gentle breeze. He dozed for a few minutes. Suddenly, an apple fell on his head and he woke up with a start. He looked up. “Surely a bird or a squirrel knocked the apple from the tree,” he guessed. But there were no birds or tree squirrels nearby. He then thought: “Just a few minutes ago, the apple was hanging on the tree. No external force made her fall. There must be some underlying force that causes things to fall to the earth.”",Falsification of theses.,Denial of observation.,Proposing hypotheses.,Contemplation of nature.,Universalization of conclusions.,
PID002,PID002,20251106_162601,2025-11-06 16:26:01,enem_blocks_PID002_20251106_162601.csv,/home/thiago/Documents/fnirs/simple/sessions/Sessions 05-11-25/PID002/enem_blocks_PID002_20251106_162601.csv,A4,Abstract,4,9,2,26,ConcreteFirst,2022_CH_71,71,2022,CH,Abstract,Abstract,A,0.444068288594161,59.0,3.0,19.67,"In contemporary societies, it consists of a violation of the basic principle stated in the text:",A,1,ANSWERED_VALID,True,3721.644178,3738.733301,3745.690757,3802.330263,17.0891230000002,6.957455999999638,56.63950599999998,80.68608499999982,63.59696199999962,1.3675607627118613,26.895361666666606,True,True,True,True,,ITI duration: 3.46s,Abstract,abstract,3721.633891,56.639538400000674,56.639516,A,ANS_A,1,0,[],2022,CH,71,"The basic principle of the rule of law is the elimination of discretion in the exercise of public powers, with the consequent guarantee of individuals' rights before these powers. Rule of law means that no individual, president or ordinary citizen is above the law. Democratic governments exercise authority through law and are themselves subject to constraints imposed by law.",Suppression of elections for political representatives.,Intervention in areas of vulnerability by the Church.,Dissemination of social projects in universities.,Expansion of income concentration processes.,Regulation of labor relations by the Legislature.,
PID002,PID002,20251106_162601,2025-11-06 16:26:01,enem_blocks_PID002_20251106_162601.csv,/home/thiago/Documents/fnirs/simple/sessions/Sessions 05-11-25/PID002/enem_blocks_PID002_20251106_162601.csv,A4,Abstract,4,9,3,27,ConcreteFirst,2021_CH_51,51,2021,CH,Abstract,Abstract,A,0.4690162788304226,56.0,3.0,18.67,"Considering the debate on water security, the proposal presented in the text is based on",A,1,ANSWERED_VALID,True,3806.390581,3827.975339,3831.959973,3882.451335,21.584757999999965,3.9846339999999145,50.49136200000021,76.06075400000009,54.47599600000012,1.3582277500000015,25.353584666666695,True,True,True,True,,ITI duration: 3.50s,Abstract,abstract,3806.353647,50.491396699999314,50.491377,A,ANS_A,1,0,[],2021,CH,51,"Fair prices and water use authorizations must adequately ensure that water withdrawal, as well as effluent return, maintain efficient and environmentally sustainable operations, in a way that is adaptable to the peculiarities and needs of industry and large-scale irrigation, as well as agricultural activities on a small scale and subsistence.
UNESCO. United Nations World Development Report",equitable distribution of supply.,monitoring urban supply.,rationing of river capacity.,gradual revitalization of soils.,generation of recyclable products.,
PID002,PID002,20251106_162601,2025-11-06 16:26:01,enem_blocks_PID002_20251106_162601.csv,/home/thiago/Documents/fnirs/simple/sessions/Sessions 05-11-25/PID002/enem_blocks_PID002_20251106_162601.csv,A5,Abstract,5,10,1,28,ConcreteFirst,2022_CH_60,60,2022,CH,Abstract,Abstract,B,0.4528563111830808,89.0,4.0,22.25,"Contrary to the prevailing view about the technological impact on human relationships, the text reveals that cell phones can play a role",B,1,ANSWERED_VALID,True,4043.360811,4067.881031,4073.075084,4121.464916,24.52021999999988,5.194053000000167,48.38983199999984,78.10410499999989,53.58388500000001,0.8775742134831448,19.526026249999973,True,True,True,True,,ITI duration: 4.00s,Abstract,abstract,4043.268005,48.389865799999825,48.389837,B,ANS_B,1,0,[],2022,CH,60,"An experiment called FunFit was developed with the aim of making members of a local community become more physically active. All study participants were linked to two other community members who would receive small cash incentives to encourage them to increase their physical activity, which was measured by accelerometers on state-issued cell phones. Thus, if the person walked more than usual, his acquaintances would receive the money. The results were astonishing: the scheme proved to be four to eight times more effective than the method of offering individual incentives.","recreational, promoting leisure in integrated networks.","social, encouraging reciprocity through digital means.","labor, converting the developer into an end user.","commercial, directing the choice for industrialized products.","cognitive, favoring virtual tools.",
PID002,PID002,20251106_162601,2025-11-06 16:26:01,enem_blocks_PID002_20251106_162601.csv,/home/thiago/Documents/fnirs/simple/sessions/Sessions 05-11-25/PID002/enem_blocks_PID002_20251106_162601.csv,A5,Abstract,5,10,2,29,ConcreteFirst,2019_CH_65,65,2019,CH,Abstract,Abstract,A,0.3433019991514724,88.0,3.0,29.33,The text points to an innovation in political theory in the modern era defined by the distinction between:,A,1,ANSWERED_VALID,True,4125.205097,4151.252877,4158.309485,4181.8714,26.047779999999875,7.056607999999869,23.561915000000226,56.66630299999997,30.618523000000096,0.643935261363636,18.888767666666656,True,True,True,True,,ITI duration: 3.21s,Abstract,abstract,4125.18855,23.561945400000695,23.561922,A,ANS_A,1,0,[],2019,CH,65,"For Machiavelli, when a man decides to tell the truth at the risk of his own physical integrity, such a decision concerns only his person. But if that same man is a head of state, personal criteria are no longer adequate to decide on actions whose consequences become so broad, since the damage will not only be individual, but collective. In this case, depending on the circumstances and the ends to be achieved, it can be decided that the best thing for the common good is to lie.",ideality and effectiveness of morality.,nullity and preservation of freedom.,illegality and legitimacy of the ruler.,verifiability and possibility of truth.,objectivity and subjectivity of knowledge.,
PID002,PID002,20251106_162601,2025-11-06 16:26:01,enem_blocks_PID002_20251106_162601.csv,/home/thiago/Documents/fnirs/simple/sessions/Sessions 05-11-25/PID002/enem_blocks_PID002_20251106_162601.csv,A5,Abstract,5,10,3,30,ConcreteFirst,2021_CH_83,83,2021,CH,Abstract,Abstract,A,0.4347480454401885,120.0,3.0,40.0,"For the Woyo people, the cultural artifacts mentioned in the text fulfill the function of a",A,1,ANSWERED_VALID,True,4186.632524,4228.743082,4232.950452,4310.301067,42.11055800000031,4.207370000000083,77.35061500000029,123.66854300000068,81.55798500000037,1.0305711916666724,41.222847666666894,True,True,True,True,,ITI duration: 4.22s,Abstract,abstract,4186.611267,77.35068110000066,77.350663,A,ANS_A,1,0,[],2021,CH,83,"Among several African peoples, particularly in the ancient Kingdom of Congo, there is graphic evidence that writing took various forms. An example of this are the pot lids carved in bas-relief from the Woyo people (Cabinda region), with everyday scenes and proverbs, drawings in the earth or sand, images engraved or inscribed on the chief's staffs or on sacred stones, but, above all,  movements of the human body inscribed in a familiar gesture. Among Woyo there was a custom for parents to offer their children carved pot lids, conveying a kind of message, with coded signs that translated guidelines for achieving a good marital relationship, being sensible in choosing a spouse and being alert to the difficulties of the marriage.",pedagogy of social customs.,imposition of forms of communication.,devaluation of youth behaviors.,destitution of the values ​​of marriage.,ethnography of religious celebrations.,
PID003,PID003,20251111_140525,2025-11-11 14:05:25,enem_blocks_PID003_20251111_140525.csv,/home/thiago/Documents/fnirs/simple/sessions/Sessions 11-11-25/PID003/enem_blocks_PID003_20251111_140525.csv,C1,Concrete,1,1,1,1,ConcreteFirst,2020_CH_56,56,2020,CH,Concrete,Concrete,D,0.4830001778034939,29.0,2.0,14.5,"In order to reduce pressure on the aforementioned natural resource, the expansion of agriculture demands improvements in the",D,1,ANSWERED_VALID,True,261.122108,272.403677,281.066931,288.007359,11.28156899999999,8.663253999999995,6.940427999999997,26.885250999999982,15.603681999999992,0.9270776206896546,13.442625499999991,True,True,True,True,,ITI duration: 4.63s,Concrete,concrete,261.104116,6.940466599946376,6.940457,D,ANS_D,1,2,"[11.155728, 8.505632]",2020,CH,56,"Global demand for food production is progressively increasing at very high rates. Currently, in most countries, continents and regions, water consumed in agriculture is around 70% of total availability.",chemical soil fertilization.,water runoff from the land.,maintenance of artesian wells.,efficiency of irrigation techniques.,speed of harvesting machines.,
PID003,PID003,20251111_140525,2025-11-11 14:05:25,enem_blocks_PID003_20251111_140525.csv,/home/thiago/Documents/fnirs/simple/sessions/Sessions 11-11-25/PID003/enem_blocks_PID003_20251111_140525.csv,C1,Concrete,1,1,2,2,ConcreteFirst,2017_CH_75,75,2017,CH,Concrete,Concrete,D,0.1964736904113095,109.0,4.0,27.25,The aforementioned UN resolution endorsed the,D,1,ANSWERED_VALID,True,292.563573,321.064011,325.09209,353.765911,28.500437999999974,4.028078999999991,28.673821000000032,61.202338,32.70190000000002,0.5614893394495413,15.3005845,True,True,True,True,,ITI duration: 4.00s,Concrete,concrete,292.532636,28.67385760002071,28.673845,D,ANS_D,1,2,"[28.372867, 3.888939]",2017,CH,75,"Palestinians gathered in front of television sets and screens set up outdoors in Ramallah, in the West Bank, to follow the vote on the resolution that called for the recognition of the so-called Palestine as an non-member observer state of the United Nations (UN). The objective was to wait for the birth, at least formally, of a Palestinian State. After the approval of the resolution, hundreds of people went to the city square with Palestinian flags, set off fireworks, honked horns and danced in the streets. Approved with 138 votes out of 193 in the General Assembly, the resolution elevates the status of the Palestinian State before the organization.",institutional delimitation of territorial borders.,increasing the quality of life of the local population.,implementation of the peace treaty with the Israelis.,support from the international community to the national demand.,equalization of the political condition with that of other countries.,
PID003,PID003,20251111_140525,2025-11-11 14:05:25,enem_blocks_PID003_20251111_140525.csv,/home/thiago/Documents/fnirs/simple/sessions/Sessions 11-11-25/PID003/enem_blocks_PID003_20251111_140525.csv,C1,Concrete,1,1,3,3,ConcreteFirst,2020_CH_78,78,2020,CH,Concrete,Concrete,C,0.3834166598860249,28.0,1.0,28.0,"The organizational characteristic of the model in question, required in the crisis context, was the",B,0,ANSWERED_VALID,True,357.766089,373.190205,378.71545,400.224714,15.42411599999997,5.525244999999984,21.50926400000003,42.458624999999984,27.034509000000014,1.5163794642857138,42.458624999999984,True,True,True,True,,ITI duration: 3.47s,Concrete,concrete,357.75577,21.509304700011853,21.509291,B,ANS_B,1,2,"[15.294812, 5.388216]",2020,CH,78,"“Toyotism, from the 1970s onwards, had a great impact on the Western world, when it appeared to advanced countries as a possible option for overcoming an accumulation crisis.”",expansion of large stocks.,increase in mass manufacturing.,adequacy of production to demand.,increased mechanization of work.,centralization of planning stages.,
PID003,PID003,20251111_140525,2025-11-11 14:05:25,enem_blocks_PID003_20251111_140525.csv,/home/thiago/Documents/fnirs/simple/sessions/Sessions 11-11-25/PID003/enem_blocks_PID003_20251111_140525.csv,C2,Concrete,2,2,1,4,ConcreteFirst,2017_CH_47,47,2017,CH,Concrete,Concrete,D,0.527917465166208,62.0,2.0,31.0,"The position taken by UNESCO, from 1948 onwards, was motivated by recent events, among which the",D,1,ANSWERED_VALID,True,681.972446,707.455686,712.672566,735.621864,25.483240000000023,5.2168799999999464,22.949298,53.64941799999997,28.166177999999945,0.8653131935483865,26.824708999999984,True,True,True,True,,ITI duration: 3.76s,Concrete,concrete,681.954615,22.94933420000598,22.949319,D,ANS_D,1,2,"[25.355082, 5.071085]",2017,CH,47,"After the Universal Declaration of Human Rights by the UN in 1948, UNESCO published studies by scientists from around the world that disqualified racist doctrines and demonstrated the unity of the human race. Since then, most European scientists themselves have come to recognize the discriminatory nature of the white man's alleged racial superiority and to condemn the aberrations committed in his name.",Japanese attack on the American military base at Pearl Harbor.,triggering of the Cold War and new rivalries between nations.,death of millions of soldiers in the fighting of the Second World War.,execution of Jews and Slavs imprisoned in Nazi ghettos and concentration camps.,dropping of atomic bombs on Hiroshima and Nagasaki by US forces.,
PID003,PID003,20251111_140525,2025-11-11 14:05:25,enem_blocks_PID003_20251111_140525.csv,/home/thiago/Documents/fnirs/simple/sessions/Sessions 11-11-25/PID003/enem_blocks_PID003_20251111_140525.csv,C2,Concrete,2,2,2,5,ConcreteFirst,2017_CH_69,69,2017,CH,Concrete,Concrete,E,0.283977091362474,62.0,4.0,15.5,"The territorialization of a production unit depends on several locational factors. From reading the text, the determining factor for the installation of oil refineries is the proximity to",E,1,ANSWERED_VALID,True,739.562736,773.211803,783.200366,835.157198,33.64906700000006,9.988563,51.95683199999996,95.59446200000002,61.94539499999996,1.541846161290323,23.898615500000005,True,True,True,True,,ITI duration: 3.41s,Concrete,concrete,739.546433,51.95686819998082,51.956852,E,ANS_E,1,2,"[33.519501, 9.852057]",2017,CH,69,"The installation of a refinery follows several technical factors. One of the most important is the location, which must be close to both consumption centers and production areas. Petrobras has refineries strategically distributed across the country. They are responsible for processing millions of barrels of oil per day, supplying the market with derivatives that can be obtained from national or imported oil.",headquarters of petrochemical companies.,derivative import zones,technological development hubs.,areas of labor agglomerations.,spaces with circulation infrastructure.,
PID003,PID003,20251111_140525,2025-11-11 14:05:25,enem_blocks_PID003_20251111_140525.csv,/home/thiago/Documents/fnirs/simple/sessions/Sessions 11-11-25/PID003/enem_blocks_PID003_20251111_140525.csv,C2,Concrete,2,2,3,6,ConcreteFirst,2018_LC_44,44,2018,LC,Concrete,Concrete,D,0.2951478999067735,132.0,7.0,18.86,"According to the text, the Plagiarism Sniffer tool achieves its objective through",E,0,ANSWERED_VALID,True,839.019313,895.638094,903.194169,957.653774,56.61878100000001,7.556074999999964,54.45960500000001,118.63446099999999,62.015679999999975,0.8987459166666666,16.94778014285714,True,True,True,True,,ITI duration: 3.33s,Concrete,concrete,838.996338,54.45964409998851,54.459635,E,ANS_E,1,2,"[56.494033, 7.423944]",2018,LC,44,"Plagiarism Sniffer: a tool against illegal copying. In the academic world or in the media, illegal copies can appear in different ways, being full or partial, or paraphrases. To help combat this crime, professor Maximiliano Zambonatto Pezzin, a computer engineer, developed the Plagiarism Sniffer program with his students. The program is capable of detecting: continuous and fragmented passages, loose sentences, reorganized parts of texts, rewritten sentences, changes in the order of periods and phonetic and syntactic errors. But how does the program actually work? Considering the text as a sequence of words, the tool analyzes and searches section by section in search engines, just as a teacher suspicious of a student would do. The difference is that the program allows you to search in several search engines, thus generating many more results.",selection of full copies.,search on specialized websites.,simulation of teaching activity.,comparison of structural patterns.,phoneme sequence identification.,
PID003,PID003,20251111_140525,2025-11-11 14:05:25,enem_blocks_PID003_20251111_140525.csv,/home/thiago/Documents/fnirs/simple/sessions/Sessions 11-11-25/PID003/enem_blocks_PID003_20251111_140525.csv,C3,Concrete,3,3,1,7,ConcreteFirst,2021_LC_26,26,2021,LC,Concrete,Concrete,D,0.3092108298406186,190.0,9.0,21.11,"Considering the operations of retrieving information from the text, there is interdependence between the expressions",D,1,ANSWERED_VALID,True,1104.635565,1175.496054,1185.030628,1273.270161,70.86048899999992,9.53457400000002,88.23953299999994,168.63459599999987,97.77410699999996,0.8875505052631573,18.73717733333332,True,True,True,True,,ITI duration: 4.77s,Concrete,concrete,1104.603961,88.23957440000959,88.239559,D,ANS_D,1,2,"[70.733176, 9.388855]",2021,LC,26,"The old papers, when not consumed by fire, sometimes awaken from their sleep to tell news of the past.
This is how you discover something new from an old name, about which you thought you knew everything, like Machado de Assis.
For example, you probably don't know that the Rio de Janeiro author, who died in 1908, wrote lyrics for the national anthem in 1867 — and you couldn't really know, because the verses were still unpublished. Until today.
These lyrics have just been discovered, in an old newspaper in Florianópolis, by independent researcher Felipe Rissato.
“From the forests in which I live/ I release a manly song:/ In honor and glory of Pedro/ The giant of Brazil”, says the beginning of the hymn, composed of seven stanzas in heptasyllabic verse, that is, verses of seven poetic syllables. The excerpt is also the song's chorus.
The Pedro mentioned is Emperor Dom Pedro II. The wizard from Cosme Velho composed the lyrics for the monarch's 42nd birthday, on December 2 of that year — the anthem would be performed that day at the theater in the city of Desterro, formerly known as Florianópolis.","""The old papers"" and ""It's like that"".","""something new"" and ""about which.""",“an old name” and “For example.”,"""The Giant of Brazil"" and ""The Mentioned Pedro.""","""the emperor Dom Pedro II"" and ""The wizard of Cosme Velho"".",
PID003,PID003,20251111_140525,2025-11-11 14:05:25,enem_blocks_PID003_20251111_140525.csv,/home/thiago/Documents/fnirs/simple/sessions/Sessions 11-11-25/PID003/enem_blocks_PID003_20251111_140525.csv,C3,Concrete,3,3,2,8,ConcreteFirst,2020_CH_82,82,2020,CH,Concrete,Concrete,A,0.4406437691929831,105.0,7.0,15.0,The physical characteristic that justifies human settlement in the places presented in the text is the occurrence of,A,1,ANSWERED_VALID,True,1278.411177,1312.323347,1317.650795,1343.876575,33.91217000000006,5.327448000000004,26.225779999999986,65.46539800000005,31.55322799999999,0.6234799809523814,9.352199714285721,True,True,True,True,,ITI duration: 4.61s,Concrete,concrete,1278.394389,26.22582789999433,26.225815,A,ANS_A,1,2,"[33.786991, 5.19158]",2020,CH,82,"The cities of Puebla, Mexico, and Legazpi, the Philippines, have almost nothing in common. They are very far from each other and are inhabited by very different people. What unites them is a tragic detail of their geography. They were built in the vicinity of some of the most dangerous volcanoes in the world: the Mexican Popocatepéti and the Philippine Mayon. Its inhabitants need to be ready to run at any time. They are part of the 550 million individuals who live in volcanic risk zones in the world. Contrary to what would be sensible, they remain there, indifferent to the danger that awaits them.",only fertile soils.,steep slopes.,diverse vegetation.,efficient drainage.,pleasant climate.,
PID003,PID003,20251111_140525,2025-11-11 14:05:25,enem_blocks_PID003_20251111_140525.csv,/home/thiago/Documents/fnirs/simple/sessions/Sessions 11-11-25/PID003/enem_blocks_PID003_20251111_140525.csv,C3,Concrete,3,3,3,9,ConcreteFirst,2020_CH_84,84,2020,CH,Concrete,Concrete,E,0.217985576821657,58.0,1.0,58.0,Which physiographic feature is generated by the tectonic process presented?,C,0,ANSWERED_VALID,True,1348.129292,1374.063427,1379.320107,1427.262702,25.93413499999997,5.25667999999996,47.94259499999998,79.13340999999991,53.19927499999994,1.364369137931033,79.13340999999991,True,True,True,True,,ITI duration: 3.72s,Concrete,concrete,1348.117014,47.94263469998259,47.942626,C,ANS_C,1,2,"[25.8097, 5.125638]",2020,CH,84,"The collision between a continental and an oceanic plate will cause the subduction of the latter under the continental plate, which, like arcs and islands, will produce a magmatic arc at the edge of the continent, composed of volcanic rocks accompanied by deformations and metamorphism of both pre-existing rocks and part of the rocks formed in the process.",Abyssal plains.,Crystalline plateaus.,Absolute depressions.,Sedimentary basins.,Modern folds.,
