participant_id,participant_folder,timestamp_raw,timestamp_iso,source_log,source_log_full_path,phase,block,trial_idx_in_block,question_number,question_year,question_field,question_type_log,t_abs,rt_from_phase,choice,correct_raw,button_click_time,option_view_time,marker_name,marker_code,note
PID001,PID001,20251106_124958,2025-11-06 12:49:58,enem_blocks_PID01_20251106_124958.csv,/home/thiago/Documents/fnirs/simple/sessions/Sessions 05-11-25/PID001/enem_blocks_PID01_20251106_124958.csv,block_start,A1,-1,,,,,350.104554,,,,,,BLK_ON,91,A1 start (target 420s)
PID001,PID001,20251106_124958,2025-11-06 12:49:58,enem_blocks_PID01_20251106_124958.csv,/home/thiago/Documents/fnirs/simple/sessions/Sessions 05-11-25/PID001/enem_blocks_PID01_20251106_124958.csv,iti,A1,1,51,2022,CH,abstract,354.170595,4.065970199997537,,,,,ITI,99,ITI duration: 4.06s
PID001,PID001,20251106_124958,2025-11-06 12:49:58,enem_blocks_PID01_20251106_124958.csv,/home/thiago/Documents/fnirs/simple/sessions/Sessions 05-11-25/PID001/enem_blocks_PID01_20251106_124958.csv,q_text_on,A1,1,51,2022,CH,abstract,354.211628,4.7299996367655694e-05,,,,,Q_TEXT_ON,11,
PID001,PID001,20251106_124958,2025-11-06 12:49:58,enem_blocks_PID01_20251106_124958.csv,/home/thiago/Documents/fnirs/simple/sessions/Sessions 05-11-25/PID001/enem_blocks_PID01_20251106_124958.csv,q_stem_on,A1,1,51,2022,CH,abstract,423.410714,3.640000068116933e-05,,,,,Q_STEM_ON,14,
PID001,PID001,20251106_124958,2025-11-06 12:49:58,enem_blocks_PID01_20251106_124958.csv,/home/thiago/Documents/fnirs/simple/sessions/Sessions 05-11-25/PID001/enem_blocks_PID01_20251106_124958.csv,q_options_on,A1,1,51,2022,CH,abstract,457.811284,3.8700003642588854e-05,,,,,Q_OPTIONS_ON,15,
PID001,PID001,20251106_124958,2025-11-06 12:49:58,enem_blocks_PID01_20251106_124958.csv,/home/thiago/Documents/fnirs/simple/sessions/Sessions 05-11-25/PID001/enem_blocks_PID01_20251106_124958.csv,answer,A1,1,51,2022,CH,abstract,505.005125,47.19387989999086,A,,,47.193861,ANS_A,21,
PID001,PID001,20251106_124958,2025-11-06 12:49:58,enem_blocks_PID01_20251106_124958.csv,/home/thiago/Documents/fnirs/simple/sessions/Sessions 05-11-25/PID001/enem_blocks_PID01_20251106_124958.csv,iti,A1,2,71,2022,CH,abstract,508.694435,3.1654178999888245,,,,,ITI,99,ITI duration: 3.15s
PID001,PID001,20251106_124958,2025-11-06 12:49:58,enem_blocks_PID01_20251106_124958.csv,/home/thiago/Documents/fnirs/simple/sessions/Sessions 05-11-25/PID001/enem_blocks_PID01_20251106_124958.csv,q_text_on,A1,2,71,2022,CH,abstract,508.710544,4.3499996536411345e-05,,,,,Q_TEXT_ON,11,
PID001,PID001,20251106_124958,2025-11-06 12:49:58,enem_blocks_PID01_20251106_124958.csv,/home/thiago/Documents/fnirs/simple/sessions/Sessions 05-11-25/PID001/enem_blocks_PID01_20251106_124958.csv,q_stem_on,A1,2,71,2022,CH,abstract,540.978507,3.9399994420818985e-05,,,,,Q_STEM_ON,14,
PID001,PID001,20251106_124958,2025-11-06 12:49:58,enem_blocks_PID01_20251106_124958.csv,/home/thiago/Documents/fnirs/simple/sessions/Sessions 05-11-25/PID001/enem_blocks_PID01_20251106_124958.csv,q_options_on,A1,2,71,2022,CH,abstract,553.459335,3.6600002204068005e-05,,,,,Q_OPTIONS_ON,15,
PID001,PID001,20251106_124958,2025-11-06 12:49:58,enem_blocks_PID01_20251106_124958.csv,/home/thiago/Documents/fnirs/simple/sessions/Sessions 05-11-25/PID001/enem_blocks_PID01_20251106_124958.csv,answer,A1,2,71,2022,CH,abstract,633.017957,79.55865849999827,A,,,79.55864,ANS_A,21,
PID001,PID001,20251106_124958,2025-11-06 12:49:58,enem_blocks_PID01_20251106_124958.csv,/home/thiago/Documents/fnirs/simple/sessions/Sessions 05-11-25/PID001/enem_blocks_PID01_20251106_124958.csv,iti,A1,3,47,2022,CH,abstract,637.4583,3.9328760000062175,,,,,ITI,99,ITI duration: 3.92s
PID001,PID001,20251106_124958,2025-11-06 12:49:58,enem_blocks_PID01_20251106_124958.csv,/home/thiago/Documents/fnirs/simple/sessions/Sessions 05-11-25/PID001/enem_blocks_PID01_20251106_124958.csv,q_text_on,A1,3,47,2022,CH,abstract,637.491758,5.77000027988106e-05,,,,,Q_TEXT_ON,11,
PID001,PID001,20251106_124958,2025-11-06 12:49:58,enem_blocks_PID01_20251106_124958.csv,/home/thiago/Documents/fnirs/simple/sessions/Sessions 05-11-25/PID001/enem_blocks_PID01_20251106_124958.csv,q_stem_on,A1,3,47,2022,CH,abstract,646.283089,7.439999899361283e-05,,,,,Q_STEM_ON,14,
PID001,PID001,20251106_124958,2025-11-06 12:49:58,enem_blocks_PID01_20251106_124958.csv,/home/thiago/Documents/fnirs/simple/sessions/Sessions 05-11-25/PID001/enem_blocks_PID01_20251106_124958.csv,q_options_on,A1,3,47,2022,CH,abstract,755.353059,3.619999915827066e-05,,,,,Q_OPTIONS_ON,15,
PID001,PID001,20251106_124958,2025-11-06 12:49:58,enem_blocks_PID01_20251106_124958.csv,/home/thiago/Documents/fnirs/simple/sessions/Sessions 05-11-25/PID001/enem_blocks_PID01_20251106_124958.csv,answer,A1,3,47,2022,CH,abstract,814.222746,58.8697233999992,C,,,58.86971,ANS_C,23,
PID001,PID001,20251106_124958,2025-11-06 12:49:58,enem_blocks_PID01_20251106_124958.csv,/home/thiago/Documents/fnirs/simple/sessions/Sessions 05-11-25/PID001/enem_blocks_PID01_20251106_124958.csv,block_end,A1,-1,,,,,814.730581,,,,,,BLK_OFF,92,A1 end (actual 464.6s)
PID001,PID001,20251106_124958,2025-11-06 12:49:58,enem_blocks_PID01_20251106_124958.csv,/home/thiago/Documents/fnirs/simple/sessions/Sessions 05-11-25/PID001/enem_blocks_PID01_20251106_124958.csv,block_start,A2,-1,,,,,817.579653,,,,,,BLK_ON,91,A2 start (target 420s)
PID001,PID001,20251106_124958,2025-11-06 12:49:58,enem_blocks_PID01_20251106_124958.csv,/home/thiago/Documents/fnirs/simple/sessions/Sessions 05-11-25/PID001/enem_blocks_PID01_20251106_124958.csv,iti,A2,1,65,2019,CH,abstract,821.613601,4.0338285000034375,,,,,ITI,99,ITI duration: 4.03s
PID001,PID001,20251106_124958,2025-11-06 12:49:58,enem_blocks_PID01_20251106_124958.csv,/home/thiago/Documents/fnirs/simple/sessions/Sessions 05-11-25/PID001/enem_blocks_PID01_20251106_124958.csv,q_text_on,A2,1,65,2019,CH,abstract,821.63969,5.200000305194408e-05,,,,,Q_TEXT_ON,11,
PID001,PID001,20251106_124958,2025-11-06 12:49:58,enem_blocks_PID01_20251106_124958.csv,/home/thiago/Documents/fnirs/simple/sessions/Sessions 05-11-25/PID001/enem_blocks_PID01_20251106_124958.csv,q_stem_on,A2,1,65,2019,CH,abstract,824.184014,7.059999916236848e-05,,,,,Q_STEM_ON,14,
PID001,PID001,20251106_124958,2025-11-06 12:49:58,enem_blocks_PID01_20251106_124958.csv,/home/thiago/Documents/fnirs/simple/sessions/Sessions 05-11-25/PID001/enem_blocks_PID01_20251106_124958.csv,q_options_on,A2,1,65,2019,CH,abstract,894.456655,8.610000077169389e-05,,,,,Q_OPTIONS_ON,15,
PID001,PID001,20251106_124958,2025-11-06 12:49:58,enem_blocks_PID01_20251106_124958.csv,/home/thiago/Documents/fnirs/simple/sessions/Sessions 05-11-25/PID001/enem_blocks_PID01_20251106_124958.csv,answer,A2,1,65,2019,CH,abstract,923.238447,28.781878000008874,C,,,28.781864,ANS_C,23,
PID001,PID001,20251106_124958,2025-11-06 12:49:58,enem_blocks_PID01_20251106_124958.csv,/home/thiago/Documents/fnirs/simple/sessions/Sessions 05-11-25/PID001/enem_blocks_PID01_20251106_124958.csv,iti,A2,2,31,2020,LC,abstract,928.078901,4.332494100002805,,,,,ITI,99,ITI duration: 4.33s
PID001,PID001,20251106_124958,2025-11-06 12:49:58,enem_blocks_PID01_20251106_124958.csv,/home/thiago/Documents/fnirs/simple/sessions/Sessions 05-11-25/PID001/enem_blocks_PID01_20251106_124958.csv,q_text_on,A2,2,31,2020,LC,abstract,928.13484,8.769999840296805e-05,,,,,Q_TEXT_ON,11,
PID001,PID001,20251106_124958,2025-11-06 12:49:58,enem_blocks_PID01_20251106_124958.csv,/home/thiago/Documents/fnirs/simple/sessions/Sessions 05-11-25/PID001/enem_blocks_PID01_20251106_124958.csv,q_stem_on,A2,2,31,2020,LC,abstract,935.371683,6.940000457689166e-05,,,,,Q_STEM_ON,14,
PID001,PID001,20251106_124958,2025-11-06 12:49:58,enem_blocks_PID01_20251106_124958.csv,/home/thiago/Documents/fnirs/simple/sessions/Sessions 05-11-25/PID001/enem_blocks_PID01_20251106_124958.csv,q_options_on,A2,2,31,2020,LC,abstract,948.800926,9.889999637380242e-05,,,,,Q_OPTIONS_ON,15,
PID001,PID001,20251106_124958,2025-11-06 12:49:58,enem_blocks_PID01_20251106_124958.csv,/home/thiago/Documents/fnirs/simple/sessions/Sessions 05-11-25/PID001/enem_blocks_PID01_20251106_124958.csv,answer,A2,2,31,2020,LC,abstract,1054.801112,106.00028429999657,C,,,106.000265,ANS_C,23,
PID001,PID001,20251106_124958,2025-11-06 12:49:58,enem_blocks_PID01_20251106_124958.csv,/home/thiago/Documents/fnirs/simple/sessions/Sessions 05-11-25/PID001/enem_blocks_PID01_20251106_124958.csv,iti,A2,3,77,2020,CH,abstract,1059.20818,3.8992220999934943,,,,,ITI,99,ITI duration: 3.88s
PID001,PID001,20251106_124958,2025-11-06 12:49:58,enem_blocks_PID01_20251106_124958.csv,/home/thiago/Documents/fnirs/simple/sessions/Sessions 05-11-25/PID001/enem_blocks_PID01_20251106_124958.csv,q_text_on,A2,3,77,2020,CH,abstract,1059.231399,5.7199998991563916e-05,,,,,Q_TEXT_ON,11,
PID001,PID001,20251106_124958,2025-11-06 12:49:58,enem_blocks_PID01_20251106_124958.csv,/home/thiago/Documents/fnirs/simple/sessions/Sessions 05-11-25/PID001/enem_blocks_PID01_20251106_124958.csv,q_stem_on,A2,3,77,2020,CH,abstract,1061.149899,7.390000973828137e-05,,,,,Q_STEM_ON,14,
PID001,PID001,20251106_124958,2025-11-06 12:49:58,enem_blocks_PID01_20251106_124958.csv,/home/thiago/Documents/fnirs/simple/sessions/Sessions 05-11-25/PID001/enem_blocks_PID01_20251106_124958.csv,q_options_on,A2,3,77,2020,CH,abstract,1061.949514,6.940000457689166e-05,,,,,Q_OPTIONS_ON,15,
PID001,PID001,20251106_124958,2025-11-06 12:49:58,enem_blocks_PID01_20251106_124958.csv,/home/thiago/Documents/fnirs/simple/sessions/Sessions 05-11-25/PID001/enem_blocks_PID01_20251106_124958.csv,answer,A2,3,77,2020,CH,abstract,1157.301826,95.35238160000881,D,,,95.352368,ANS_D,24,
PID001,PID001,20251106_124958,2025-11-06 12:49:58,enem_blocks_PID01_20251106_124958.csv,/home/thiago/Documents/fnirs/simple/sessions/Sessions 05-11-25/PID001/enem_blocks_PID01_20251106_124958.csv,block_end,A2,-1,,,,,1237.59512,,,,,,BLK_OFF,92,A2 end (actual 420.0s)
PID001,PID001,20251106_124958,2025-11-06 12:49:58,enem_blocks_PID01_20251106_124958.csv,/home/thiago/Documents/fnirs/simple/sessions/Sessions 05-11-25/PID001/enem_blocks_PID01_20251106_124958.csv,block_start,A3,-1,,,,,1240.613164,,,,,,BLK_ON,91,A3 start (target 420s)
PID001,PID001,20251106_124958,2025-11-06 12:49:58,enem_blocks_PID01_20251106_124958.csv,/home/thiago/Documents/fnirs/simple/sessions/Sessions 05-11-25/PID001/enem_blocks_PID01_20251106_124958.csv,iti,A3,1,51,2021,CH,abstract,1245.0289,4.415598500010674,,,,,ITI,99,ITI duration: 4.40s
PID001,PID001,20251106_124958,2025-11-06 12:49:58,enem_blocks_PID01_20251106_124958.csv,/home/thiago/Documents/fnirs/simple/sessions/Sessions 05-11-25/PID001/enem_blocks_PID01_20251106_124958.csv,q_text_on,A3,1,51,2021,CH,abstract,1245.060439,0.0003189999988535419,,,,,Q_TEXT_ON,11,
PID001,PID001,20251106_124958,2025-11-06 12:49:58,enem_blocks_PID01_20251106_124958.csv,/home/thiago/Documents/fnirs/simple/sessions/Sessions 05-11-25/PID001/enem_blocks_PID01_20251106_124958.csv,q_stem_on,A3,1,51,2021,CH,abstract,1278.478869,8.3099992480129e-05,,,,,Q_STEM_ON,14,
PID001,PID001,20251106_124958,2025-11-06 12:49:58,enem_blocks_PID01_20251106_124958.csv,/home/thiago/Documents/fnirs/simple/sessions/Sessions 05-11-25/PID001/enem_blocks_PID01_20251106_124958.csv,q_options_on,A3,1,51,2021,CH,abstract,1284.733687,7.219999679364264e-05,,,,,Q_OPTIONS_ON,15,
PID001,PID001,20251106_124958,2025-11-06 12:49:58,enem_blocks_PID01_20251106_124958.csv,/home/thiago/Documents/fnirs/simple/sessions/Sessions 05-11-25/PID001/enem_blocks_PID01_20251106_124958.csv,answer,A3,1,51,2021,CH,abstract,1295.845342,11.111727499999688,B,,,11.111712,ANS_B,22,
PID001,PID001,20251106_124958,2025-11-06 12:49:58,enem_blocks_PID01_20251106_124958.csv,/home/thiago/Documents/fnirs/simple/sessions/Sessions 05-11-25/PID001/enem_blocks_PID01_20251106_124958.csv,iti,A3,2,57,2021,CH,abstract,1300.754147,4.4008268999896245,,,,,ITI,99,ITI duration: 4.38s
PID001,PID001,20251106_124958,2025-11-06 12:49:58,enem_blocks_PID01_20251106_124958.csv,/home/thiago/Documents/fnirs/simple/sessions/Sessions 05-11-25/PID001/enem_blocks_PID01_20251106_124958.csv,q_text_on,A3,2,57,2021,CH,abstract,1300.780938,8.359999628737569e-05,,,,,Q_TEXT_ON,11,
PID001,PID001,20251106_124958,2025-11-06 12:49:58,enem_blocks_PID01_20251106_124958.csv,/home/thiago/Documents/fnirs/simple/sessions/Sessions 05-11-25/PID001/enem_blocks_PID01_20251106_124958.csv,q_stem_on,A3,2,57,2021,CH,abstract,1302.705005,6.159998883958906e-05,,,,,Q_STEM_ON,14,
PID001,PID001,20251106_124958,2025-11-06 12:49:58,enem_blocks_PID01_20251106_124958.csv,/home/thiago/Documents/fnirs/simple/sessions/Sessions 05-11-25/PID001/enem_blocks_PID01_20251106_124958.csv,q_options_on,A3,2,57,2021,CH,abstract,1347.468655,6.439999560825527e-05,,,,,Q_OPTIONS_ON,15,
PID001,PID001,20251106_124958,2025-11-06 12:49:58,enem_blocks_PID01_20251106_124958.csv,/home/thiago/Documents/fnirs/simple/sessions/Sessions 05-11-25/PID001/enem_blocks_PID01_20251106_124958.csv,answer,A3,2,57,2021,CH,abstract,1381.716918,34.24832769999921,B,,,34.248311,ANS_B,22,
PID001,PID001,20251106_124958,2025-11-06 12:49:58,enem_blocks_PID01_20251106_124958.csv,/home/thiago/Documents/fnirs/simple/sessions/Sessions 05-11-25/PID001/enem_blocks_PID01_20251106_124958.csv,iti,A3,3,86,2021,CH,abstract,1386.890428,4.666929400002118,,,,,ITI,99,ITI duration: 4.66s
PID001,PID001,20251106_124958,2025-11-06 12:49:58,enem_blocks_PID01_20251106_124958.csv,/home/thiago/Documents/fnirs/simple/sessions/Sessions 05-11-25/PID001/enem_blocks_PID01_20251106_124958.csv,q_text_on,A3,3,86,2021,CH,abstract,1386.912722,5.200000305194408e-05,,,,,Q_TEXT_ON,11,
PID001,PID001,20251106_124958,2025-11-06 12:49:58,enem_blocks_PID01_20251106_124958.csv,/home/thiago/Documents/fnirs/simple/sessions/Sessions 05-11-25/PID001/enem_blocks_PID01_20251106_124958.csv,q_stem_on,A3,3,86,2021,CH,abstract,1443.500722,7.130000449251384e-05,,,,,Q_STEM_ON,14,
PID001,PID001,20251106_124958,2025-11-06 12:49:58,enem_blocks_PID01_20251106_124958.csv,/home/thiago/Documents/fnirs/simple/sessions/Sessions 05-11-25/PID001/enem_blocks_PID01_20251106_124958.csv,q_options_on,A3,3,86,2021,CH,abstract,1459.571741,6.170000415295362e-05,,,,,Q_OPTIONS_ON,15,
PID001,PID001,20251106_124958,2025-11-06 12:49:58,enem_blocks_PID01_20251106_124958.csv,/home/thiago/Documents/fnirs/simple/sessions/Sessions 05-11-25/PID001/enem_blocks_PID01_20251106_124958.csv,answer,A3,3,86,2021,CH,abstract,1488.399263,28.82758380001178,A,,,28.827566,ANS_A,21,
PID001,PID001,20251106_124958,2025-11-06 12:49:58,enem_blocks_PID01_20251106_124958.csv,/home/thiago/Documents/fnirs/simple/sessions/Sessions 05-11-25/PID001/enem_blocks_PID01_20251106_124958.csv,block_end,A3,-1,,,,,1660.627962,,,,,,BLK_OFF,92,A3 end (actual 420.0s)
PID001,PID001,20251106_124958,2025-11-06 12:49:58,enem_blocks_PID01_20251106_124958.csv,/home/thiago/Documents/fnirs/simple/sessions/Sessions 05-11-25/PID001/enem_blocks_PID01_20251106_124958.csv,block_start,A4,-1,,,,,1662.480208,,,,,,BLK_ON,91,A4 start (target 420s)
PID001,PID001,20251106_124958,2025-11-06 12:49:58,enem_blocks_PID01_20251106_124958.csv,/home/thiago/Documents/fnirs/simple/sessions/Sessions 05-11-25/PID001/enem_blocks_PID01_20251106_124958.csv,iti,A4,1,65,2021,CH,abstract,1667.278293,4.7979577999940375,,,,,ITI,99,ITI duration: 4.78s
PID001,PID001,20251106_124958,2025-11-06 12:49:58,enem_blocks_PID01_20251106_124958.csv,/home/thiago/Documents/fnirs/simple/sessions/Sessions 05-11-25/PID001/enem_blocks_PID01_20251106_124958.csv,q_text_on,A4,1,65,2021,CH,abstract,1667.298686,6.350000330712646e-05,,,,,Q_TEXT_ON,11,
PID001,PID001,20251106_124958,2025-11-06 12:49:58,enem_blocks_PID01_20251106_124958.csv,/home/thiago/Documents/fnirs/simple/sessions/Sessions 05-11-25/PID001/enem_blocks_PID01_20251106_124958.csv,q_stem_on,A4,1,65,2021,CH,abstract,1704.743953,9.220000356435776e-05,,,,,Q_STEM_ON,14,
PID001,PID001,20251106_124958,2025-11-06 12:49:58,enem_blocks_PID01_20251106_124958.csv,/home/thiago/Documents/fnirs/simple/sessions/Sessions 05-11-25/PID001/enem_blocks_PID01_20251106_124958.csv,q_options_on,A4,1,65,2021,CH,abstract,1712.833013,9.029998909682035e-05,,,,,Q_OPTIONS_ON,15,
PID001,PID001,20251106_124958,2025-11-06 12:49:58,enem_blocks_PID01_20251106_124958.csv,/home/thiago/Documents/fnirs/simple/sessions/Sessions 05-11-25/PID001/enem_blocks_PID01_20251106_124958.csv,answer,A4,1,65,2021,CH,abstract,1770.003752,57.17082899999514,B,,,57.170813,ANS_B,22,
PID001,PID001,20251106_124958,2025-11-06 12:49:58,enem_blocks_PID01_20251106_124958.csv,/home/thiago/Documents/fnirs/simple/sessions/Sessions 05-11-25/PID001/enem_blocks_PID01_20251106_124958.csv,iti,A4,2,64,2019,CH,abstract,1774.528859,4.000282499997411,,,,,ITI,99,ITI duration: 3.99s
PID001,PID001,20251106_124958,2025-11-06 12:49:58,enem_blocks_PID01_20251106_124958.csv,/home/thiago/Documents/fnirs/simple/sessions/Sessions 05-11-25/PID001/enem_blocks_PID01_20251106_124958.csv,q_text_on,A4,2,64,2019,CH,abstract,1774.569213,7.840000034775585e-05,,,,,Q_TEXT_ON,11,
PID001,PID001,20251106_124958,2025-11-06 12:49:58,enem_blocks_PID01_20251106_124958.csv,/home/thiago/Documents/fnirs/simple/sessions/Sessions 05-11-25/PID001/enem_blocks_PID01_20251106_124958.csv,q_stem_on,A4,2,64,2019,CH,abstract,1778.652996,8.199999865610152e-05,,,,,Q_STEM_ON,14,
PID001,PID001,20251106_124958,2025-11-06 12:49:58,enem_blocks_PID01_20251106_124958.csv,/home/thiago/Documents/fnirs/simple/sessions/Sessions 05-11-25/PID001/enem_blocks_PID01_20251106_124958.csv,q_options_on,A4,2,64,2019,CH,abstract,1844.526489,5.94000011915341e-05,,,,,Q_OPTIONS_ON,15,
PID001,PID001,20251106_124958,2025-11-06 12:49:58,enem_blocks_PID01_20251106_124958.csv,/home/thiago/Documents/fnirs/simple/sessions/Sessions 05-11-25/PID001/enem_blocks_PID01_20251106_124958.csv,answer,A4,2,64,2019,CH,abstract,1867.057296,22.530866200002492,C,,,22.530854,ANS_C,23,
PID001,PID001,20251106_124958,2025-11-06 12:49:58,enem_blocks_PID01_20251106_124958.csv,/home/thiago/Documents/fnirs/simple/sessions/Sessions 05-11-25/PID001/enem_blocks_PID01_20251106_124958.csv,iti,A4,3,76,2020,CH,abstract,1870.678846,3.113800999999512,,,,,ITI,99,ITI duration: 3.09s
PID001,PID001,20251106_124958,2025-11-06 12:49:58,enem_blocks_PID01_20251106_124958.csv,/home/thiago/Documents/fnirs/simple/sessions/Sessions 05-11-25/PID001/enem_blocks_PID01_20251106_124958.csv,q_text_on,A4,3,76,2020,CH,abstract,1870.716882,6.10999995842576e-05,,,,,Q_TEXT_ON,11,
PID001,PID001,20251106_124958,2025-11-06 12:49:58,enem_blocks_PID01_20251106_124958.csv,/home/thiago/Documents/fnirs/simple/sessions/Sessions 05-11-25/PID001/enem_blocks_PID01_20251106_124958.csv,q_stem_on,A4,3,76,2020,CH,abstract,1903.678413,5.729999975301325e-05,,,,,Q_STEM_ON,14,
PID001,PID001,20251106_124958,2025-11-06 12:49:58,enem_blocks_PID01_20251106_124958.csv,/home/thiago/Documents/fnirs/simple/sessions/Sessions 05-11-25/PID001/enem_blocks_PID01_20251106_124958.csv,q_options_on,A4,3,76,2020,CH,abstract,1925.434244,6.629999552387744e-05,,,,,Q_OPTIONS_ON,15,
PID001,PID001,20251106_124958,2025-11-06 12:49:58,enem_blocks_PID01_20251106_124958.csv,/home/thiago/Documents/fnirs/simple/sessions/Sessions 05-11-25/PID001/enem_blocks_PID01_20251106_124958.csv,answer,A4,3,76,2020,CH,abstract,1974.455418,49.02123969999957,B,,,49.021226,ANS_B,22,
PID001,PID001,20251106_124958,2025-11-06 12:49:58,enem_blocks_PID01_20251106_124958.csv,/home/thiago/Documents/fnirs/simple/sessions/Sessions 05-11-25/PID001/enem_blocks_PID01_20251106_124958.csv,block_end,A4,-1,,,,,2082.494445,,,,,,BLK_OFF,92,A4 end (actual 420.0s)
PID001,PID001,20251106_124958,2025-11-06 12:49:58,enem_blocks_PID01_20251106_124958.csv,/home/thiago/Documents/fnirs/simple/sessions/Sessions 05-11-25/PID001/enem_blocks_PID01_20251106_124958.csv,block_start,A5,-1,,,,,2084.780811,,,,,,BLK_ON,91,A5 start (target 420s)
PID001,PID001,20251106_124958,2025-11-06 12:49:58,enem_blocks_PID01_20251106_124958.csv,/home/thiago/Documents/fnirs/simple/sessions/Sessions 05-11-25/PID001/enem_blocks_PID01_20251106_124958.csv,iti,A5,1,83,2021,CH,abstract,2088.361813,3.5808773999888217,,,,,ITI,99,ITI duration: 3.57s
PID001,PID001,20251106_124958,2025-11-06 12:49:58,enem_blocks_PID01_20251106_124958.csv,/home/thiago/Documents/fnirs/simple/sessions/Sessions 05-11-25/PID001/enem_blocks_PID01_20251106_124958.csv,q_text_on,A5,1,83,2021,CH,abstract,2088.416583,9.039998985826969e-05,,,,,Q_TEXT_ON,11,
PID001,PID001,20251106_124958,2025-11-06 12:49:58,enem_blocks_PID01_20251106_124958.csv,/home/thiago/Documents/fnirs/simple/sessions/Sessions 05-11-25/PID001/enem_blocks_PID01_20251106_124958.csv,q_stem_on,A5,1,83,2021,CH,abstract,2148.243842,5.9600002714432776e-05,,,,,Q_STEM_ON,14,
PID001,PID001,20251106_124958,2025-11-06 12:49:58,enem_blocks_PID01_20251106_124958.csv,/home/thiago/Documents/fnirs/simple/sessions/Sessions 05-11-25/PID001/enem_blocks_PID01_20251106_124958.csv,q_options_on,A5,1,83,2021,CH,abstract,2157.974701,6.510000093840063e-05,,,,,Q_OPTIONS_ON,15,
PID001,PID001,20251106_124958,2025-11-06 12:49:58,enem_blocks_PID01_20251106_124958.csv,/home/thiago/Documents/fnirs/simple/sessions/Sessions 05-11-25/PID001/enem_blocks_PID01_20251106_124958.csv,answer,A5,1,83,2021,CH,abstract,2181.455205,23.480569099992863,B,,,23.480556,ANS_B,22,
PID001,PID001,20251106_124958,2025-11-06 12:49:58,enem_blocks_PID01_20251106_124958.csv,/home/thiago/Documents/fnirs/simple/sessions/Sessions 05-11-25/PID001/enem_blocks_PID01_20251106_124958.csv,iti,A5,2,56,2019,CH,abstract,2185.279743,3.316200500004925,,,,,ITI,99,ITI duration: 3.30s
PID001,PID001,20251106_124958,2025-11-06 12:49:58,enem_blocks_PID01_20251106_124958.csv,/home/thiago/Documents/fnirs/simple/sessions/Sessions 05-11-25/PID001/enem_blocks_PID01_20251106_124958.csv,q_text_on,A5,2,56,2019,CH,abstract,2185.317433,0.00018960000306833535,,,,,Q_TEXT_ON,11,
PID001,PID001,20251106_124958,2025-11-06 12:49:58,enem_blocks_PID01_20251106_124958.csv,/home/thiago/Documents/fnirs/simple/sessions/Sessions 05-11-25/PID001/enem_blocks_PID01_20251106_124958.csv,q_stem_on,A5,2,56,2019,CH,abstract,2187.448069,6.639999628532678e-05,,,,,Q_STEM_ON,14,
PID001,PID001,20251106_124958,2025-11-06 12:49:58,enem_blocks_PID01_20251106_124958.csv,/home/thiago/Documents/fnirs/simple/sessions/Sessions 05-11-25/PID001/enem_blocks_PID01_20251106_124958.csv,q_options_on,A5,2,56,2019,CH,abstract,2189.61305,5.740000051446259e-05,,,,,Q_OPTIONS_ON,15,
PID001,PID001,20251106_124958,2025-11-06 12:49:58,enem_blocks_PID01_20251106_124958.csv,/home/thiago/Documents/fnirs/simple/sessions/Sessions 05-11-25/PID001/enem_blocks_PID01_20251106_124958.csv,answer,A5,2,56,2019,CH,abstract,2314.335872,124.72287929999584,D,,,124.722866,ANS_D,24,
PID001,PID001,20251106_124958,2025-11-06 12:49:58,enem_blocks_PID01_20251106_124958.csv,/home/thiago/Documents/fnirs/simple/sessions/Sessions 05-11-25/PID001/enem_blocks_PID01_20251106_124958.csv,iti,A5,3,60,2022,CH,abstract,2318.875812,4.032496999992873,,,,,ITI,99,ITI duration: 4.02s
PID001,PID001,20251106_124958,2025-11-06 12:49:58,enem_blocks_PID01_20251106_124958.csv,/home/thiago/Documents/fnirs/simple/sessions/Sessions 05-11-25/PID001/enem_blocks_PID01_20251106_124958.csv,q_text_on,A5,3,60,2022,CH,abstract,2318.916963,0.00011520000407472253,,,,,Q_TEXT_ON,11,
PID001,PID001,20251106_124958,2025-11-06 12:49:58,enem_blocks_PID01_20251106_124958.csv,/home/thiago/Documents/fnirs/simple/sessions/Sessions 05-11-25/PID001/enem_blocks_PID01_20251106_124958.csv,q_stem_on,A5,3,60,2022,CH,abstract,2320.76269,6.790000770706683e-05,,,,,Q_STEM_ON,14,
PID001,PID001,20251106_124958,2025-11-06 12:49:58,enem_blocks_PID01_20251106_124958.csv,/home/thiago/Documents/fnirs/simple/sessions/Sessions 05-11-25/PID001/enem_blocks_PID01_20251106_124958.csv,q_options_on,A5,3,60,2022,CH,abstract,2321.280959,6.420000863727182e-05,,,,,Q_OPTIONS_ON,15,
PID001,PID001,20251106_124958,2025-11-06 12:49:58,enem_blocks_PID01_20251106_124958.csv,/home/thiago/Documents/fnirs/simple/sessions/Sessions 05-11-25/PID001/enem_blocks_PID01_20251106_124958.csv,answer,A5,3,60,2022,CH,abstract,2481.325299,160.04440450000402,B,,,160.044354,ANS_B,22,
PID001,PID001,20251106_124958,2025-11-06 12:49:58,enem_blocks_PID01_20251106_124958.csv,/home/thiago/Documents/fnirs/simple/sessions/Sessions 05-11-25/PID001/enem_blocks_PID01_20251106_124958.csv,block_end,A5,-1,,,,,2504.794273,,,,,,BLK_OFF,92,A5 end (actual 420.0s)
PID001,PID001,20251106_124958,2025-11-06 12:49:58,enem_blocks_PID01_20251106_124958.csv,/home/thiago/Documents/fnirs/simple/sessions/Sessions 05-11-25/PID001/enem_blocks_PID01_20251106_124958.csv,block_start,C1,-1,,,,,2507.42941,,,,,,BLK_ON,91,C1 start (target 420s)
PID001,PID001,20251106_124958,2025-11-06 12:49:58,enem_blocks_PID01_20251106_124958.csv,/home/thiago/Documents/fnirs/simple/sessions/Sessions 05-11-25/PID001/enem_blocks_PID01_20251106_124958.csv,iti,C1,1,47,2017,CH,concrete,2511.077292,3.647749700001441,,,,,ITI,99,ITI duration: 3.64s
PID001,PID001,20251106_124958,2025-11-06 12:49:58,enem_blocks_PID01_20251106_124958.csv,/home/thiago/Documents/fnirs/simple/sessions/Sessions 05-11-25/PID001/enem_blocks_PID01_20251106_124958.csv,q_text_on,C1,1,47,2017,CH,concrete,2511.112954,8.259998867288232e-05,,,,,Q_TEXT_ON,11,
PID001,PID001,20251106_124958,2025-11-06 12:49:58,enem_blocks_PID01_20251106_124958.csv,/home/thiago/Documents/fnirs/simple/sessions/Sessions 05-11-25/PID001/enem_blocks_PID01_20251106_124958.csv,q_stem_on,C1,1,47,2017,CH,concrete,2541.790419,5.7999990531243384e-05,,,,,Q_STEM_ON,14,
PID001,PID001,20251106_124958,2025-11-06 12:49:58,enem_blocks_PID01_20251106_124958.csv,/home/thiago/Documents/fnirs/simple/sessions/Sessions 05-11-25/PID001/enem_blocks_PID01_20251106_124958.csv,q_options_on,C1,1,47,2017,CH,concrete,2551.554767,6.570000550709665e-05,,,,,Q_OPTIONS_ON,15,
PID001,PID001,20251106_124958,2025-11-06 12:49:58,enem_blocks_PID01_20251106_124958.csv,/home/thiago/Documents/fnirs/simple/sessions/Sessions 05-11-25/PID001/enem_blocks_PID01_20251106_124958.csv,answer,C1,1,47,2017,CH,concrete,2607.804622,56.24992149999889,D,,,56.249909,ANS_D,24,
PID001,PID001,20251106_124958,2025-11-06 12:49:58,enem_blocks_PID01_20251106_124958.csv,/home/thiago/Documents/fnirs/simple/sessions/Sessions 05-11-25/PID001/enem_blocks_PID01_20251106_124958.csv,iti,C1,2,70,2020,CH,concrete,2611.528528,3.2160045000055106,,,,,ITI,99,ITI duration: 3.20s
PID001,PID001,20251106_124958,2025-11-06 12:49:58,enem_blocks_PID01_20251106_124958.csv,/home/thiago/Documents/fnirs/simple/sessions/Sessions 05-11-25/PID001/enem_blocks_PID01_20251106_124958.csv,q_text_on,C1,2,70,2020,CH,concrete,2611.543106,5.7900004321709275e-05,,,,,Q_TEXT_ON,11,
PID001,PID001,20251106_124958,2025-11-06 12:49:58,enem_blocks_PID01_20251106_124958.csv,/home/thiago/Documents/fnirs/simple/sessions/Sessions 05-11-25/PID001/enem_blocks_PID01_20251106_124958.csv,q_stem_on,C1,2,70,2020,CH,concrete,2640.596802,3.9699996705166996e-05,,,,,Q_STEM_ON,14,
PID001,PID001,20251106_124958,2025-11-06 12:49:58,enem_blocks_PID01_20251106_124958.csv,/home/thiago/Documents/fnirs/simple/sessions/Sessions 05-11-25/PID001/enem_blocks_PID01_20251106_124958.csv,q_options_on,C1,2,70,2020,CH,concrete,2650.2826,3.700000524986535e-05,,,,,Q_OPTIONS_ON,15,
PID001,PID001,20251106_124958,2025-11-06 12:49:58,enem_blocks_PID01_20251106_124958.csv,/home/thiago/Documents/fnirs/simple/sessions/Sessions 05-11-25/PID001/enem_blocks_PID01_20251106_124958.csv,answer,C1,2,70,2020,CH,concrete,2720.071596,69.78903379999974,E,,,69.789021,ANS_E,25,
PID001,PID001,20251106_124958,2025-11-06 12:49:58,enem_blocks_PID01_20251106_124958.csv,/home/thiago/Documents/fnirs/simple/sessions/Sessions 05-11-25/PID001/enem_blocks_PID01_20251106_124958.csv,iti,C1,3,44,2018,LC,concrete,2725.494714,4.91670579998754,,,,,ITI,99,ITI duration: 4.91s
PID001,PID001,20251106_124958,2025-11-06 12:49:58,enem_blocks_PID01_20251106_124958.csv,/home/thiago/Documents/fnirs/simple/sessions/Sessions 05-11-25/PID001/enem_blocks_PID01_20251106_124958.csv,q_text_on,C1,3,44,2018,LC,concrete,2725.521144,3.849998756777495e-05,,,,,Q_TEXT_ON,11,
PID001,PID001,20251106_124958,2025-11-06 12:49:58,enem_blocks_PID01_20251106_124958.csv,/home/thiago/Documents/fnirs/simple/sessions/Sessions 05-11-25/PID001/enem_blocks_PID01_20251106_124958.csv,q_stem_on,C1,3,44,2018,LC,concrete,2727.930391,4.3100008042529225e-05,,,,,Q_STEM_ON,14,
PID001,PID001,20251106_124958,2025-11-06 12:49:58,enem_blocks_PID01_20251106_124958.csv,/home/thiago/Documents/fnirs/simple/sessions/Sessions 05-11-25/PID001/enem_blocks_PID01_20251106_124958.csv,q_options_on,C1,3,44,2018,LC,concrete,2729.473817,4.050000279676169e-05,,,,,Q_OPTIONS_ON,15,
PID001,PID001,20251106_124958,2025-11-06 12:49:58,enem_blocks_PID01_20251106_124958.csv,/home/thiago/Documents/fnirs/simple/sessions/Sessions 05-11-25/PID001/enem_blocks_PID01_20251106_124958.csv,answer,C1,3,44,2018,LC,concrete,2817.321223,87.8474467000051,E,,,87.847436,ANS_E,25,
PID001,PID001,20251106_124958,2025-11-06 12:49:58,enem_blocks_PID01_20251106_124958.csv,/home/thiago/Documents/fnirs/simple/sessions/Sessions 05-11-25/PID001/enem_blocks_PID01_20251106_124958.csv,block_end,C1,-1,,,,,2927.443331,,,,,,BLK_OFF,92,C1 end (actual 420.0s)
PID001,PID001,20251106_124958,2025-11-06 12:49:58,enem_blocks_PID01_20251106_124958.csv,/home/thiago/Documents/fnirs/simple/sessions/Sessions 05-11-25/PID001/enem_blocks_PID01_20251106_124958.csv,block_start,C2,-1,,,,,2929.145254,,,,,,BLK_ON,91,C2 start (target 420s)
PID001,PID001,20251106_124958,2025-11-06 12:49:58,enem_blocks_PID01_20251106_124958.csv,/home/thiago/Documents/fnirs/simple/sessions/Sessions 05-11-25/PID001/enem_blocks_PID01_20251106_124958.csv,iti,C2,1,82,2020,CH,concrete,2932.17712,3.0317680000007385,,,,,ITI,99,ITI duration: 3.02s
PID001,PID001,20251106_124958,2025-11-06 12:49:58,enem_blocks_PID01_20251106_124958.csv,/home/thiago/Documents/fnirs/simple/sessions/Sessions 05-11-25/PID001/enem_blocks_PID01_20251106_124958.csv,q_text_on,C2,1,82,2020,CH,concrete,2932.203016,3.8999991375021636e-05,,,,,Q_TEXT_ON,11,
PID001,PID001,20251106_124958,2025-11-06 12:49:58,enem_blocks_PID01_20251106_124958.csv,/home/thiago/Documents/fnirs/simple/sessions/Sessions 05-11-25/PID001/enem_blocks_PID01_20251106_124958.csv,q_stem_on,C2,1,82,2020,CH,concrete,2961.159183,6.150000263005495e-05,,,,,Q_STEM_ON,14,
PID001,PID001,20251106_124958,2025-11-06 12:49:58,enem_blocks_PID01_20251106_124958.csv,/home/thiago/Documents/fnirs/simple/sessions/Sessions 05-11-25/PID001/enem_blocks_PID01_20251106_124958.csv,q_options_on,C2,1,82,2020,CH,concrete,2985.213821,4.389999958220869e-05,,,,,Q_OPTIONS_ON,15,
PID001,PID001,20251106_124958,2025-11-06 12:49:58,enem_blocks_PID01_20251106_124958.csv,/home/thiago/Documents/fnirs/simple/sessions/Sessions 05-11-25/PID001/enem_blocks_PID01_20251106_124958.csv,answer,C2,1,82,2020,CH,concrete,3009.492071,24.278294300005655,E,,,24.278281,ANS_E,25,
PID001,PID001,20251106_124958,2025-11-06 12:49:58,enem_blocks_PID01_20251106_124958.csv,/home/thiago/Documents/fnirs/simple/sessions/Sessions 05-11-25/PID001/enem_blocks_PID01_20251106_124958.csv,iti,C2,2,75,2017,CH,concrete,3014.964429,4.965719399988302,,,,,ITI,99,ITI duration: 4.96s
PID001,PID001,20251106_124958,2025-11-06 12:49:58,enem_blocks_PID01_20251106_124958.csv,/home/thiago/Documents/fnirs/simple/sessions/Sessions 05-11-25/PID001/enem_blocks_PID01_20251106_124958.csv,q_text_on,C2,2,75,2017,CH,concrete,3014.981564,3.919999289792031e-05,,,,,Q_TEXT_ON,11,
PID001,PID001,20251106_124958,2025-11-06 12:49:58,enem_blocks_PID01_20251106_124958.csv,/home/thiago/Documents/fnirs/simple/sessions/Sessions 05-11-25/PID001/enem_blocks_PID01_20251106_124958.csv,q_stem_on,C2,2,75,2017,CH,concrete,3017.946372,4.709999484475702e-05,,,,,Q_STEM_ON,14,
PID001,PID001,20251106_124958,2025-11-06 12:49:58,enem_blocks_PID01_20251106_124958.csv,/home/thiago/Documents/fnirs/simple/sessions/Sessions 05-11-25/PID001/enem_blocks_PID01_20251106_124958.csv,q_options_on,C2,2,75,2017,CH,concrete,3018.455557,4.180001269560307e-05,,,,,Q_OPTIONS_ON,15,
PID001,PID001,20251106_124958,2025-11-06 12:49:58,enem_blocks_PID01_20251106_124958.csv,/home/thiago/Documents/fnirs/simple/sessions/Sessions 05-11-25/PID001/enem_blocks_PID01_20251106_124958.csv,answer,C2,2,75,2017,CH,concrete,3134.570382,116.11486630000581,A,,,116.114854,ANS_A,21,
PID001,PID001,20251106_124958,2025-11-06 12:49:58,enem_blocks_PID01_20251106_124958.csv,/home/thiago/Documents/fnirs/simple/sessions/Sessions 05-11-25/PID001/enem_blocks_PID01_20251106_124958.csv,iti,C2,3,68,2017,CH,concrete,3139.244589,4.164621999996598,,,,,ITI,99,ITI duration: 4.15s
PID001,PID001,20251106_124958,2025-11-06 12:49:58,enem_blocks_PID01_20251106_124958.csv,/home/thiago/Documents/fnirs/simple/sessions/Sessions 05-11-25/PID001/enem_blocks_PID01_20251106_124958.csv,q_text_on,C2,3,68,2017,CH,concrete,3139.255931,3.3200005418621004e-05,,,,,Q_TEXT_ON,11,
PID001,PID001,20251106_124958,2025-11-06 12:49:58,enem_blocks_PID01_20251106_124958.csv,/home/thiago/Documents/fnirs/simple/sessions/Sessions 05-11-25/PID001/enem_blocks_PID01_20251106_124958.csv,q_stem_on,C2,3,68,2017,CH,concrete,3140.962193,5.09000092279166e-05,,,,,Q_STEM_ON,14,
PID001,PID001,20251106_124958,2025-11-06 12:49:58,enem_blocks_PID01_20251106_124958.csv,/home/thiago/Documents/fnirs/simple/sessions/Sessions 05-11-25/PID001/enem_blocks_PID01_20251106_124958.csv,q_options_on,C2,3,68,2017,CH,concrete,3141.425511,5.870001041330397e-05,,,,,Q_OPTIONS_ON,15,
PID001,PID001,20251106_124958,2025-11-06 12:49:58,enem_blocks_PID01_20251106_124958.csv,/home/thiago/Documents/fnirs/simple/sessions/Sessions 05-11-25/PID001/enem_blocks_PID01_20251106_124958.csv,answer,C2,3,68,2017,CH,concrete,3209.777087,68.35163509999984,C,,,68.351625,ANS_C,23,
PID001,PID001,20251106_124958,2025-11-06 12:49:58,enem_blocks_PID01_20251106_124958.csv,/home/thiago/Documents/fnirs/simple/sessions/Sessions 05-11-25/PID001/enem_blocks_PID01_20251106_124958.csv,block_end,C2,-1,,,,,3349.159915,,,,,,BLK_OFF,92,C2 end (actual 420.0s)
PID001,PID001,20251106_124958,2025-11-06 12:49:58,enem_blocks_PID01_20251106_124958.csv,/home/thiago/Documents/fnirs/simple/sessions/Sessions 05-11-25/PID001/enem_blocks_PID01_20251106_124958.csv,block_start,C3,-1,,,,,3350.561529,,,,,,BLK_ON,91,C3 start (target 420s)
PID001,PID001,20251106_124958,2025-11-06 12:49:58,enem_blocks_PID01_20251106_124958.csv,/home/thiago/Documents/fnirs/simple/sessions/Sessions 05-11-25/PID001/enem_blocks_PID01_20251106_124958.csv,iti,C3,1,56,2020,CH,concrete,3354.194068,3.6324726000020746,,,,,ITI,99,ITI duration: 3.61s
PID001,PID001,20251106_124958,2025-11-06 12:49:58,enem_blocks_PID01_20251106_124958.csv,/home/thiago/Documents/fnirs/simple/sessions/Sessions 05-11-25/PID001/enem_blocks_PID01_20251106_124958.csv,q_text_on,C3,1,56,2020,CH,concrete,3354.207071,3.540000761859119e-05,,,,,Q_TEXT_ON,11,
PID001,PID001,20251106_124958,2025-11-06 12:49:58,enem_blocks_PID01_20251106_124958.csv,/home/thiago/Documents/fnirs/simple/sessions/Sessions 05-11-25/PID001/enem_blocks_PID01_20251106_124958.csv,q_stem_on,C3,1,56,2020,CH,concrete,3355.977734,3.6299999919719994e-05,,,,,Q_STEM_ON,14,
PID001,PID001,20251106_124958,2025-11-06 12:49:58,enem_blocks_PID01_20251106_124958.csv,/home/thiago/Documents/fnirs/simple/sessions/Sessions 05-11-25/PID001/enem_blocks_PID01_20251106_124958.csv,q_options_on,C3,1,56,2020,CH,concrete,3356.472549,0.00014050000754650682,,,,,Q_OPTIONS_ON,15,
PID001,PID001,20251106_124958,2025-11-06 12:49:58,enem_blocks_PID01_20251106_124958.csv,/home/thiago/Documents/fnirs/simple/sessions/Sessions 05-11-25/PID001/enem_blocks_PID01_20251106_124958.csv,answer,C3,1,56,2020,CH,concrete,3431.941555,75.46914699999616,D,,,75.469137,ANS_D,24,
PID001,PID001,20251106_124958,2025-11-06 12:49:58,enem_blocks_PID01_20251106_124958.csv,/home/thiago/Documents/fnirs/simple/sessions/Sessions 05-11-25/PID001/enem_blocks_PID01_20251106_124958.csv,iti,C3,2,76,2021,CH,concrete,3436.91388,4.465971499987063,,,,,ITI,99,ITI duration: 4.46s
PID001,PID001,20251106_124958,2025-11-06 12:49:58,enem_blocks_PID01_20251106_124958.csv,/home/thiago/Documents/fnirs/simple/sessions/Sessions 05-11-25/PID001/enem_blocks_PID01_20251106_124958.csv,q_text_on,C3,2,76,2021,CH,concrete,3436.93357,4.260000423528254e-05,,,,,Q_TEXT_ON,11,
PID001,PID001,20251106_124958,2025-11-06 12:49:58,enem_blocks_PID01_20251106_124958.csv,/home/thiago/Documents/fnirs/simple/sessions/Sessions 05-11-25/PID001/enem_blocks_PID01_20251106_124958.csv,q_stem_on,C3,2,76,2021,CH,concrete,3438.999679,3.650000144261867e-05,,,,,Q_STEM_ON,14,
PID001,PID001,20251106_124958,2025-11-06 12:49:58,enem_blocks_PID01_20251106_124958.csv,/home/thiago/Documents/fnirs/simple/sessions/Sessions 05-11-25/PID001/enem_blocks_PID01_20251106_124958.csv,q_options_on,C3,2,76,2021,CH,concrete,3439.492961,0.00014000000373926014,,,,,Q_OPTIONS_ON,15,
PID001,PID001,20251106_124958,2025-11-06 12:49:58,enem_blocks_PID01_20251106_124958.csv,/home/thiago/Documents/fnirs/simple/sessions/Sessions 05-11-25/PID001/enem_blocks_PID01_20251106_124958.csv,answer,C3,2,76,2021,CH,concrete,3520.393184,80.90036299999338,C,,,80.900353,ANS_C,23,
PID001,PID001,20251106_124958,2025-11-06 12:49:58,enem_blocks_PID01_20251106_124958.csv,/home/thiago/Documents/fnirs/simple/sessions/Sessions 05-11-25/PID001/enem_blocks_PID01_20251106_124958.csv,iti,C3,3,26,2021,LC,concrete,3525.766839,4.865640899995924,,,,,ITI,99,ITI duration: 4.86s
PID001,PID001,20251106_124958,2025-11-06 12:49:58,enem_blocks_PID01_20251106_124958.csv,/home/thiago/Documents/fnirs/simple/sessions/Sessions 05-11-25/PID001/enem_blocks_PID01_20251106_124958.csv,q_text_on,C3,3,26,2021,LC,concrete,3525.802996,4.0099999750964344e-05,,,,,Q_TEXT_ON,11,
PID001,PID001,20251106_124958,2025-11-06 12:49:58,enem_blocks_PID01_20251106_124958.csv,/home/thiago/Documents/fnirs/simple/sessions/Sessions 05-11-25/PID001/enem_blocks_PID01_20251106_124958.csv,q_stem_on,C3,3,26,2021,LC,concrete,3527.886606,3.850000211969018e-05,,,,,Q_STEM_ON,14,
PID001,PID001,20251106_124958,2025-11-06 12:49:58,enem_blocks_PID01_20251106_124958.csv,/home/thiago/Documents/fnirs/simple/sessions/Sessions 05-11-25/PID001/enem_blocks_PID01_20251106_124958.csv,q_options_on,C3,3,26,2021,LC,concrete,3534.271791,4.0099999750964344e-05,,,,,Q_OPTIONS_ON,15,
PID001,PID001,20251106_124958,2025-11-06 12:49:58,enem_blocks_PID01_20251106_124958.csv,/home/thiago/Documents/fnirs/simple/sessions/Sessions 05-11-25/PID001/enem_blocks_PID01_20251106_124958.csv,answer,C3,3,26,2021,LC,concrete,3683.050604,148.77885319999768,E,,,148.778838,ANS_E,25,
PID001,PID001,20251106_124958,2025-11-06 12:49:58,enem_blocks_PID01_20251106_124958.csv,/home/thiago/Documents/fnirs/simple/sessions/Sessions 05-11-25/PID001/enem_blocks_PID01_20251106_124958.csv,block_end,C3,-1,,,,,3770.576309,,,,,,BLK_OFF,92,C3 end (actual 420.0s)
PID001,PID001,20251106_124958,2025-11-06 12:49:58,enem_blocks_PID01_20251106_124958.csv,/home/thiago/Documents/fnirs/simple/sessions/Sessions 05-11-25/PID001/enem_blocks_PID01_20251106_124958.csv,block_start,C4,-1,,,,,3773.477734,,,,,,BLK_ON,91,C4 start (target 420s)
PID001,PID001,20251106_124958,2025-11-06 12:49:58,enem_blocks_PID01_20251106_124958.csv,/home/thiago/Documents/fnirs/simple/sessions/Sessions 05-11-25/PID001/enem_blocks_PID01_20251106_124958.csv,iti,C4,1,59,2020,CH,concrete,3778.343623,4.8657998999988195,,,,,ITI,99,ITI duration: 4.85s
PID001,PID001,20251106_124958,2025-11-06 12:49:58,enem_blocks_PID01_20251106_124958.csv,/home/thiago/Documents/fnirs/simple/sessions/Sessions 05-11-25/PID001/enem_blocks_PID01_20251106_124958.csv,q_text_on,C4,1,59,2020,CH,concrete,3778.356946,5.120001151226461e-05,,,,,Q_TEXT_ON,11,
PID001,PID001,20251106_124958,2025-11-06 12:49:58,enem_blocks_PID01_20251106_124958.csv,/home/thiago/Documents/fnirs/simple/sessions/Sessions 05-11-25/PID001/enem_blocks_PID01_20251106_124958.csv,q_stem_on,C4,1,59,2020,CH,concrete,3779.794879,4.0099999750964344e-05,,,,,Q_STEM_ON,14,
PID001,PID001,20251106_124958,2025-11-06 12:49:58,enem_blocks_PID01_20251106_124958.csv,/home/thiago/Documents/fnirs/simple/sessions/Sessions 05-11-25/PID001/enem_blocks_PID01_20251106_124958.csv,q_options_on,C4,1,59,2020,CH,concrete,3780.25648,3.709999145939946e-05,,,,,Q_OPTIONS_ON,15,
PID001,PID001,20251106_124958,2025-11-06 12:49:58,enem_blocks_PID01_20251106_124958.csv,/home/thiago/Documents/fnirs/simple/sessions/Sessions 05-11-25/PID001/enem_blocks_PID01_20251106_124958.csv,answer,C4,1,59,2020,CH,concrete,3872.772277,92.51583399999072,C,,,92.515818,ANS_C,23,
PID001,PID001,20251106_124958,2025-11-06 12:49:58,enem_blocks_PID01_20251106_124958.csv,/home/thiago/Documents/fnirs/simple/sessions/Sessions 05-11-25/PID001/enem_blocks_PID01_20251106_124958.csv,iti,C4,2,84,2020,CH,concrete,3877.66134,4.383340100001078,,,,,ITI,99,ITI duration: 4.37s
PID001,PID001,20251106_124958,2025-11-06 12:49:58,enem_blocks_PID01_20251106_124958.csv,/home/thiago/Documents/fnirs/simple/sessions/Sessions 05-11-25/PID001/enem_blocks_PID01_20251106_124958.csv,q_text_on,C4,2,84,2020,CH,concrete,3877.670898,3.260000084992498e-05,,,,,Q_TEXT_ON,11,
PID001,PID001,20251106_124958,2025-11-06 12:49:58,enem_blocks_PID01_20251106_124958.csv,/home/thiago/Documents/fnirs/simple/sessions/Sessions 05-11-25/PID001/enem_blocks_PID01_20251106_124958.csv,q_stem_on,C4,2,84,2020,CH,concrete,3879.945594,3.530000685714185e-05,,,,,Q_STEM_ON,14,
PID001,PID001,20251106_124958,2025-11-06 12:49:58,enem_blocks_PID01_20251106_124958.csv,/home/thiago/Documents/fnirs/simple/sessions/Sessions 05-11-25/PID001/enem_blocks_PID01_20251106_124958.csv,q_options_on,C4,2,84,2020,CH,concrete,3880.40575,4.2800005758181214e-05,,,,,Q_OPTIONS_ON,15,
PID001,PID001,20251106_124958,2025-11-06 12:49:58,enem_blocks_PID01_20251106_124958.csv,/home/thiago/Documents/fnirs/simple/sessions/Sessions 05-11-25/PID001/enem_blocks_PID01_20251106_124958.csv,answer,C4,2,84,2020,CH,concrete,3945.027225,64.62151720000838,E,,,64.621505,ANS_E,25,
PID001,PID001,20251106_124958,2025-11-06 12:49:58,enem_blocks_PID01_20251106_124958.csv,/home/thiago/Documents/fnirs/simple/sessions/Sessions 05-11-25/PID001/enem_blocks_PID01_20251106_124958.csv,iti,C4,3,78,2020,CH,concrete,3948.617476,3.0837881000043126,,,,,ITI,99,ITI duration: 3.07s
PID001,PID001,20251106_124958,2025-11-06 12:49:58,enem_blocks_PID01_20251106_124958.csv,/home/thiago/Documents/fnirs/simple/sessions/Sessions 05-11-25/PID001/enem_blocks_PID01_20251106_124958.csv,q_text_on,C4,3,78,2020,CH,concrete,3948.628644,3.779999678954482e-05,,,,,Q_TEXT_ON,11,
PID001,PID001,20251106_124958,2025-11-06 12:49:58,enem_blocks_PID01_20251106_124958.csv,/home/thiago/Documents/fnirs/simple/sessions/Sessions 05-11-25/PID001/enem_blocks_PID01_20251106_124958.csv,q_stem_on,C4,3,78,2020,CH,concrete,3950.002095,6.330000178422779e-05,,,,,Q_STEM_ON,14,
PID001,PID001,20251106_124958,2025-11-06 12:49:58,enem_blocks_PID01_20251106_124958.csv,/home/thiago/Documents/fnirs/simple/sessions/Sessions 05-11-25/PID001/enem_blocks_PID01_20251106_124958.csv,q_options_on,C4,3,78,2020,CH,concrete,3950.479371,4.010001430287957e-05,,,,,Q_OPTIONS_ON,15,
PID001,PID001,20251106_124958,2025-11-06 12:49:58,enem_blocks_PID01_20251106_124958.csv,/home/thiago/Documents/fnirs/simple/sessions/Sessions 05-11-25/PID001/enem_blocks_PID01_20251106_124958.csv,answer,C4,3,78,2020,CH,concrete,4010.54965,60.07031900000584,B,,,60.07031,ANS_B,22,
PID001,PID001,20251106_124958,2025-11-06 12:49:58,enem_blocks_PID01_20251106_124958.csv,/home/thiago/Documents/fnirs/simple/sessions/Sessions 05-11-25/PID001/enem_blocks_PID01_20251106_124958.csv,block_end,C4,-1,,,,,4193.492837,,,,,,BLK_OFF,92,C4 end (actual 420.0s)
PID001,PID001,20251106_124958,2025-11-06 12:49:58,enem_blocks_PID01_20251106_124958.csv,/home/thiago/Documents/fnirs/simple/sessions/Sessions 05-11-25/PID001/enem_blocks_PID01_20251106_124958.csv,block_start,C5,-1,,,,,4196.643508,,,,,,BLK_ON,91,C5 start (target 420s)
PID001,PID001,20251106_124958,2025-11-06 12:49:58,enem_blocks_PID01_20251106_124958.csv,/home/thiago/Documents/fnirs/simple/sessions/Sessions 05-11-25/PID001/enem_blocks_PID01_20251106_124958.csv,iti,C5,1,69,2017,CH,concrete,4200.542567,3.898991099995328,,,,,ITI,99,ITI duration: 3.88s
PID001,PID001,20251106_124958,2025-11-06 12:49:58,enem_blocks_PID01_20251106_124958.csv,/home/thiago/Documents/fnirs/simple/sessions/Sessions 05-11-25/PID001/enem_blocks_PID01_20251106_124958.csv,q_text_on,C5,1,69,2017,CH,concrete,4200.556613,4.020000051241368e-05,,,,,Q_TEXT_ON,11,
PID001,PID001,20251106_124958,2025-11-06 12:49:58,enem_blocks_PID01_20251106_124958.csv,/home/thiago/Documents/fnirs/simple/sessions/Sessions 05-11-25/PID001/enem_blocks_PID01_20251106_124958.csv,q_stem_on,C5,1,69,2017,CH,concrete,4202.495299,4.129999433644116e-05,,,,,Q_STEM_ON,14,
PID001,PID001,20251106_124958,2025-11-06 12:49:58,enem_blocks_PID01_20251106_124958.csv,/home/thiago/Documents/fnirs/simple/sessions/Sessions 05-11-25/PID001/enem_blocks_PID01_20251106_124958.csv,q_options_on,C5,1,69,2017,CH,concrete,4203.028254,3.670000296551734e-05,,,,,Q_OPTIONS_ON,15,
PID001,PID001,20251106_124958,2025-11-06 12:49:58,enem_blocks_PID01_20251106_124958.csv,/home/thiago/Documents/fnirs/simple/sessions/Sessions 05-11-25/PID001/enem_blocks_PID01_20251106_124958.csv,answer,C5,1,69,2017,CH,concrete,4277.140507,74.11228929999925,D,,,74.112276,ANS_D,24,
PID001,PID001,20251106_124958,2025-11-06 12:49:58,enem_blocks_PID01_20251106_124958.csv,/home/thiago/Documents/fnirs/simple/sessions/Sessions 05-11-25/PID001/enem_blocks_PID01_20251106_124958.csv,iti,C5,2,77,2018,CH,concrete,4281.89698,4.248520000008284,,,,,ITI,99,ITI duration: 4.24s
PID001,PID001,20251106_124958,2025-11-06 12:49:58,enem_blocks_PID01_20251106_124958.csv,/home/thiago/Documents/fnirs/simple/sessions/Sessions 05-11-25/PID001/enem_blocks_PID01_20251106_124958.csv,q_text_on,C5,2,77,2018,CH,concrete,4281.910299,3.460000152699649e-05,,,,,Q_TEXT_ON,11,
PID001,PID001,20251106_124958,2025-11-06 12:49:58,enem_blocks_PID01_20251106_124958.csv,/home/thiago/Documents/fnirs/simple/sessions/Sessions 05-11-25/PID001/enem_blocks_PID01_20251106_124958.csv,q_stem_on,C5,2,77,2018,CH,concrete,4283.265635,3.749999450519681e-05,,,,,Q_STEM_ON,14,
PID001,PID001,20251106_124958,2025-11-06 12:49:58,enem_blocks_PID01_20251106_124958.csv,/home/thiago/Documents/fnirs/simple/sessions/Sessions 05-11-25/PID001/enem_blocks_PID01_20251106_124958.csv,q_options_on,C5,2,77,2018,CH,concrete,4283.662905,4.1399995097890496e-05,,,,,Q_OPTIONS_ON,15,
PID001,PID001,20251106_124958,2025-11-06 12:49:58,enem_blocks_PID01_20251106_124958.csv,/home/thiago/Documents/fnirs/simple/sessions/Sessions 05-11-25/PID001/enem_blocks_PID01_20251106_124958.csv,answer,C5,2,77,2018,CH,concrete,4330.065987,46.403123800002504,A,,,46.403115,ANS_A,21,
PID001,PID001,20251106_124958,2025-11-06 12:49:58,enem_blocks_PID01_20251106_124958.csv,/home/thiago/Documents/fnirs/simple/sessions/Sessions 05-11-25/PID001/enem_blocks_PID01_20251106_124958.csv,iti,C5,3,46,2021,CH,concrete,4334.721934,4.1499215999938315,,,,,ITI,99,ITI duration: 4.13s
PID001,PID001,20251106_124958,2025-11-06 12:49:58,enem_blocks_PID01_20251106_124958.csv,/home/thiago/Documents/fnirs/simple/sessions/Sessions 05-11-25/PID001/enem_blocks_PID01_20251106_124958.csv,q_text_on,C5,3,46,2021,CH,concrete,4334.736551,5.780000356025994e-05,,,,,Q_TEXT_ON,11,
PID001,PID001,20251106_124958,2025-11-06 12:49:58,enem_blocks_PID01_20251106_124958.csv,/home/thiago/Documents/fnirs/simple/sessions/Sessions 05-11-25/PID001/enem_blocks_PID01_20251106_124958.csv,q_stem_on,C5,3,46,2021,CH,concrete,4336.140874,5.439999222289771e-05,,,,,Q_STEM_ON,14,
PID001,PID001,20251106_124958,2025-11-06 12:49:58,enem_blocks_PID01_20251106_124958.csv,/home/thiago/Documents/fnirs/simple/sessions/Sessions 05-11-25/PID001/enem_blocks_PID01_20251106_124958.csv,q_options_on,C5,3,46,2021,CH,concrete,4336.618881,4.299999272916466e-05,,,,,Q_OPTIONS_ON,15,
PID001,PID001,20251106_124958,2025-11-06 12:49:58,enem_blocks_PID01_20251106_124958.csv,/home/thiago/Documents/fnirs/simple/sessions/Sessions 05-11-25/PID001/enem_blocks_PID01_20251106_124958.csv,answer,C5,3,46,2021,CH,concrete,4399.237486,62.61864789998799,A,,,62.618635,ANS_A,21,
PID001,PID001,20251106_124958,2025-11-06 12:49:58,enem_blocks_PID01_20251106_124958.csv,/home/thiago/Documents/fnirs/simple/sessions/Sessions 05-11-25/PID001/enem_blocks_PID01_20251106_124958.csv,block_end,C5,-1,,,,,4616.658796,,,,,,BLK_OFF,92,C5 end (actual 420.0s)
PID002,PID002,20251106_162601,2025-11-06 16:26:01,enem_blocks_PID002_20251106_162601.csv,/home/thiago/Documents/fnirs/simple/sessions/Sessions 05-11-25/PID002/enem_blocks_PID002_20251106_162601.csv,block_start,C1,-1,,,,,233.481417,,,,,,BLK_ON,91,C1 start (target 420s)
PID002,PID002,20251106_162601,2025-11-06 16:26:01,enem_blocks_PID002_20251106_162601.csv,/home/thiago/Documents/fnirs/simple/sessions/Sessions 05-11-25/PID002/enem_blocks_PID002_20251106_162601.csv,iti,C1,1,77,2018,CH,concrete,236.614603,3.1330496000000494,,,,,ITI,99,ITI duration: 3.11s
PID002,PID002,20251106_162601,2025-11-06 16:26:01,enem_blocks_PID002_20251106_162601.csv,/home/thiago/Documents/fnirs/simple/sessions/Sessions 05-11-25/PID002/enem_blocks_PID002_20251106_162601.csv,q_text_on,C1,1,77,2018,CH,concrete,236.635434,3.4100000448233914e-05,,,,,Q_TEXT_ON,11,
PID002,PID002,20251106_162601,2025-11-06 16:26:01,enem_blocks_PID002_20251106_162601.csv,/home/thiago/Documents/fnirs/simple/sessions/Sessions 05-11-25/PID002/enem_blocks_PID002_20251106_162601.csv,q_stem_on,C1,1,77,2018,CH,concrete,254.181098,3.890000061801402e-05,,,,,Q_STEM_ON,14,
PID002,PID002,20251106_162601,2025-11-06 16:26:01,enem_blocks_PID002_20251106_162601.csv,/home/thiago/Documents/fnirs/simple/sessions/Sessions 05-11-25/PID002/enem_blocks_PID002_20251106_162601.csv,q_options_on,C1,1,77,2018,CH,concrete,258.938196,3.120000019407598e-05,,,,,Q_OPTIONS_ON,15,
PID002,PID002,20251106_162601,2025-11-06 16:26:01,enem_blocks_PID002_20251106_162601.csv,/home/thiago/Documents/fnirs/simple/sessions/Sessions 05-11-25/PID002/enem_blocks_PID002_20251106_162601.csv,answer,C1,1,77,2018,CH,concrete,294.549015,35.61085000000003,C,,,35.610828,ANS_C,23,
PID002,PID002,20251106_162601,2025-11-06 16:26:01,enem_blocks_PID002_20251106_162601.csv,/home/thiago/Documents/fnirs/simple/sessions/Sessions 05-11-25/PID002/enem_blocks_PID002_20251106_162601.csv,iti,C1,2,76,2021,CH,concrete,298.970101,3.8973910999993677,,,,,ITI,99,ITI duration: 3.89s
PID002,PID002,20251106_162601,2025-11-06 16:26:01,enem_blocks_PID002_20251106_162601.csv,/home/thiago/Documents/fnirs/simple/sessions/Sessions 05-11-25/PID002/enem_blocks_PID002_20251106_162601.csv,q_text_on,C1,2,76,2021,CH,concrete,298.998132,3.270000070187962e-05,,,,,Q_TEXT_ON,11,
PID002,PID002,20251106_162601,2025-11-06 16:26:01,enem_blocks_PID002_20251106_162601.csv,/home/thiago/Documents/fnirs/simple/sessions/Sessions 05-11-25/PID002/enem_blocks_PID002_20251106_162601.csv,q_stem_on,C1,2,76,2021,CH,concrete,344.7875,3.090000063821208e-05,,,,,Q_STEM_ON,14,
PID002,PID002,20251106_162601,2025-11-06 16:26:01,enem_blocks_PID002_20251106_162601.csv,/home/thiago/Documents/fnirs/simple/sessions/Sessions 05-11-25/PID002/enem_blocks_PID002_20251106_162601.csv,q_options_on,C1,2,76,2021,CH,concrete,356.473632,3.20999997711624e-05,,,,,Q_OPTIONS_ON,15,
PID002,PID002,20251106_162601,2025-11-06 16:26:01,enem_blocks_PID002_20251106_162601.csv,/home/thiago/Documents/fnirs/simple/sessions/Sessions 05-11-25/PID002/enem_blocks_PID002_20251106_162601.csv,answer,C1,2,76,2021,CH,concrete,444.256159,87.78255910000007,A,,,87.782551,ANS_A,21,
PID002,PID002,20251106_162601,2025-11-06 16:26:01,enem_blocks_PID002_20251106_162601.csv,/home/thiago/Documents/fnirs/simple/sessions/Sessions 05-11-25/PID002/enem_blocks_PID002_20251106_162601.csv,iti,C1,3,78,2020,CH,concrete,448.898825,4.13531090000015,,,,,ITI,99,ITI duration: 4.13s
PID002,PID002,20251106_162601,2025-11-06 16:26:01,enem_blocks_PID002_20251106_162601.csv,/home/thiago/Documents/fnirs/simple/sessions/Sessions 05-11-25/PID002/enem_blocks_PID002_20251106_162601.csv,q_text_on,C1,3,78,2020,CH,concrete,448.909113,3.569999989849748e-05,,,,,Q_TEXT_ON,11,
PID002,PID002,20251106_162601,2025-11-06 16:26:01,enem_blocks_PID002_20251106_162601.csv,/home/thiago/Documents/fnirs/simple/sessions/Sessions 05-11-25/PID002/enem_blocks_PID002_20251106_162601.csv,q_stem_on,C1,3,78,2020,CH,concrete,458.852572,6.359999952110229e-05,,,,,Q_STEM_ON,14,
PID002,PID002,20251106_162601,2025-11-06 16:26:01,enem_blocks_PID002_20251106_162601.csv,/home/thiago/Documents/fnirs/simple/sessions/Sessions 05-11-25/PID002/enem_blocks_PID002_20251106_162601.csv,q_options_on,C1,3,78,2020,CH,concrete,464.595008,3.240000023652101e-05,,,,,Q_OPTIONS_ON,15,
PID002,PID002,20251106_162601,2025-11-06 16:26:01,enem_blocks_PID002_20251106_162601.csv,/home/thiago/Documents/fnirs/simple/sessions/Sessions 05-11-25/PID002/enem_blocks_PID002_20251106_162601.csv,answer,C1,3,78,2020,CH,concrete,522.69471,58.099734100000205,C,,,58.099707,ANS_C,23,
PID002,PID002,20251106_162601,2025-11-06 16:26:01,enem_blocks_PID002_20251106_162601.csv,/home/thiago/Documents/fnirs/simple/sessions/Sessions 05-11-25/PID002/enem_blocks_PID002_20251106_162601.csv,block_end,C1,-1,,,,,653.497043,,,,,,BLK_OFF,92,C1 end (actual 420.0s)
PID002,PID002,20251106_162601,2025-11-06 16:26:01,enem_blocks_PID002_20251106_162601.csv,/home/thiago/Documents/fnirs/simple/sessions/Sessions 05-11-25/PID002/enem_blocks_PID002_20251106_162601.csv,block_start,C2,-1,,,,,655.598651,,,,,,BLK_ON,91,C2 start (target 420s)
PID002,PID002,20251106_162601,2025-11-06 16:26:01,enem_blocks_PID002_20251106_162601.csv,/home/thiago/Documents/fnirs/simple/sessions/Sessions 05-11-25/PID002/enem_blocks_PID002_20251106_162601.csv,iti,C2,1,44,2018,LC,concrete,660.19761,4.598809600000095,,,,,ITI,99,ITI duration: 4.59s
PID002,PID002,20251106_162601,2025-11-06 16:26:01,enem_blocks_PID002_20251106_162601.csv,/home/thiago/Documents/fnirs/simple/sessions/Sessions 05-11-25/PID002/enem_blocks_PID002_20251106_162601.csv,q_text_on,C2,1,44,2018,LC,concrete,660.252205,3.670000023703324e-05,,,,,Q_TEXT_ON,11,
PID002,PID002,20251106_162601,2025-11-06 16:26:01,enem_blocks_PID002_20251106_162601.csv,/home/thiago/Documents/fnirs/simple/sessions/Sessions 05-11-25/PID002/enem_blocks_PID002_20251106_162601.csv,q_stem_on,C2,1,44,2018,LC,concrete,697.363805,5.439999949885532e-05,,,,,Q_STEM_ON,14,
PID002,PID002,20251106_162601,2025-11-06 16:26:01,enem_blocks_PID002_20251106_162601.csv,/home/thiago/Documents/fnirs/simple/sessions/Sessions 05-11-25/PID002/enem_blocks_PID002_20251106_162601.csv,q_options_on,C2,1,44,2018,LC,concrete,700.269129,3.0500000320898835e-05,,,,,Q_OPTIONS_ON,15,
PID002,PID002,20251106_162601,2025-11-06 16:26:01,enem_blocks_PID002_20251106_162601.csv,/home/thiago/Documents/fnirs/simple/sessions/Sessions 05-11-25/PID002/enem_blocks_PID002_20251106_162601.csv,answer,C2,1,44,2018,LC,concrete,742.17728,41.90818180000042,D,,,41.908169,ANS_D,24,
PID002,PID002,20251106_162601,2025-11-06 16:26:01,enem_blocks_PID002_20251106_162601.csv,/home/thiago/Documents/fnirs/simple/sessions/Sessions 05-11-25/PID002/enem_blocks_PID002_20251106_162601.csv,iti,C2,2,70,2020,CH,concrete,747.601931,4.9179237999996985,,,,,ITI,99,ITI duration: 4.91s
PID002,PID002,20251106_162601,2025-11-06 16:26:01,enem_blocks_PID002_20251106_162601.csv,/home/thiago/Documents/fnirs/simple/sessions/Sessions 05-11-25/PID002/enem_blocks_PID002_20251106_162601.csv,q_text_on,C2,2,70,2020,CH,concrete,747.617283,3.5000000934815034e-05,,,,,Q_TEXT_ON,11,
PID002,PID002,20251106_162601,2025-11-06 16:26:01,enem_blocks_PID002_20251106_162601.csv,/home/thiago/Documents/fnirs/simple/sessions/Sessions 05-11-25/PID002/enem_blocks_PID002_20251106_162601.csv,q_stem_on,C2,2,70,2020,CH,concrete,779.835341,3.8100000892882235e-05,,,,,Q_STEM_ON,14,
PID002,PID002,20251106_162601,2025-11-06 16:26:01,enem_blocks_PID002_20251106_162601.csv,/home/thiago/Documents/fnirs/simple/sessions/Sessions 05-11-25/PID002/enem_blocks_PID002_20251106_162601.csv,q_options_on,C2,2,70,2020,CH,concrete,784.719389,3.190000097674783e-05,,,,,Q_OPTIONS_ON,15,
PID002,PID002,20251106_162601,2025-11-06 16:26:01,enem_blocks_PID002_20251106_162601.csv,/home/thiago/Documents/fnirs/simple/sessions/Sessions 05-11-25/PID002/enem_blocks_PID002_20251106_162601.csv,answer,C2,2,70,2020,CH,concrete,842.52793,57.808573199999955,E,,,57.808552,ANS_E,25,
PID002,PID002,20251106_162601,2025-11-06 16:26:01,enem_blocks_PID002_20251106_162601.csv,/home/thiago/Documents/fnirs/simple/sessions/Sessions 05-11-25/PID002/enem_blocks_PID002_20251106_162601.csv,iti,C2,3,46,2021,CH,concrete,846.550999,3.51590269999906,,,,,ITI,99,ITI duration: 3.50s
PID002,PID002,20251106_162601,2025-11-06 16:26:01,enem_blocks_PID002_20251106_162601.csv,/home/thiago/Documents/fnirs/simple/sessions/Sessions 05-11-25/PID002/enem_blocks_PID002_20251106_162601.csv,q_text_on,C2,3,46,2021,CH,concrete,846.563047,2.990000029967632e-05,,,,,Q_TEXT_ON,11,
PID002,PID002,20251106_162601,2025-11-06 16:26:01,enem_blocks_PID002_20251106_162601.csv,/home/thiago/Documents/fnirs/simple/sessions/Sessions 05-11-25/PID002/enem_blocks_PID002_20251106_162601.csv,q_stem_on,C2,3,46,2021,CH,concrete,861.037795,6.580000081157777e-05,,,,,Q_STEM_ON,14,
PID002,PID002,20251106_162601,2025-11-06 16:26:01,enem_blocks_PID002_20251106_162601.csv,/home/thiago/Documents/fnirs/simple/sessions/Sessions 05-11-25/PID002/enem_blocks_PID002_20251106_162601.csv,q_options_on,C2,3,46,2021,CH,concrete,865.109555,3.6100000215810724e-05,,,,,Q_OPTIONS_ON,15,
PID002,PID002,20251106_162601,2025-11-06 16:26:01,enem_blocks_PID002_20251106_162601.csv,/home/thiago/Documents/fnirs/simple/sessions/Sessions 05-11-25/PID002/enem_blocks_PID002_20251106_162601.csv,answer,C2,3,46,2021,CH,concrete,950.944717,85.83519879999949,B,,,85.835176,ANS_B,22,
PID002,PID002,20251106_162601,2025-11-06 16:26:01,enem_blocks_PID002_20251106_162601.csv,/home/thiago/Documents/fnirs/simple/sessions/Sessions 05-11-25/PID002/enem_blocks_PID002_20251106_162601.csv,block_end,C2,-1,,,,,1075.61374,,,,,,BLK_OFF,92,C2 end (actual 420.0s)
PID002,PID002,20251106_162601,2025-11-06 16:26:01,enem_blocks_PID002_20251106_162601.csv,/home/thiago/Documents/fnirs/simple/sessions/Sessions 05-11-25/PID002/enem_blocks_PID002_20251106_162601.csv,block_start,C3,-1,,,,,1076.666996,,,,,,BLK_ON,91,C3 start (target 420s)
PID002,PID002,20251106_162601,2025-11-06 16:26:01,enem_blocks_PID002_20251106_162601.csv,/home/thiago/Documents/fnirs/simple/sessions/Sessions 05-11-25/PID002/enem_blocks_PID002_20251106_162601.csv,iti,C3,1,26,2021,LC,concrete,1081.048519,4.381396200000381,,,,,ITI,99,ITI duration: 4.36s
PID002,PID002,20251106_162601,2025-11-06 16:26:01,enem_blocks_PID002_20251106_162601.csv,/home/thiago/Documents/fnirs/simple/sessions/Sessions 05-11-25/PID002/enem_blocks_PID002_20251106_162601.csv,q_text_on,C3,1,26,2021,LC,concrete,1081.078552,3.6499999623629265e-05,,,,,Q_TEXT_ON,11,
PID002,PID002,20251106_162601,2025-11-06 16:26:01,enem_blocks_PID002_20251106_162601.csv,/home/thiago/Documents/fnirs/simple/sessions/Sessions 05-11-25/PID002/enem_blocks_PID002_20251106_162601.csv,q_stem_on,C3,1,26,2021,LC,concrete,1143.77409,3.239999932702631e-05,,,,,Q_STEM_ON,14,
PID002,PID002,20251106_162601,2025-11-06 16:26:01,enem_blocks_PID002_20251106_162601.csv,/home/thiago/Documents/fnirs/simple/sessions/Sessions 05-11-25/PID002/enem_blocks_PID002_20251106_162601.csv,q_options_on,C3,1,26,2021,LC,concrete,1150.911748,3.139999898849055e-05,,,,,Q_OPTIONS_ON,15,
PID002,PID002,20251106_162601,2025-11-06 16:26:01,enem_blocks_PID002_20251106_162601.csv,/home/thiago/Documents/fnirs/simple/sessions/Sessions 05-11-25/PID002/enem_blocks_PID002_20251106_162601.csv,answer,C3,1,26,2021,LC,concrete,1268.460309,117.54859199999919,E,,,117.548572,ANS_E,25,
PID002,PID002,20251106_162601,2025-11-06 16:26:01,enem_blocks_PID002_20251106_162601.csv,/home/thiago/Documents/fnirs/simple/sessions/Sessions 05-11-25/PID002/enem_blocks_PID002_20251106_162601.csv,iti,C3,2,47,2017,CH,concrete,1273.200361,4.232287900000301,,,,,ITI,99,ITI duration: 4.22s
PID002,PID002,20251106_162601,2025-11-06 16:26:01,enem_blocks_PID002_20251106_162601.csv,/home/thiago/Documents/fnirs/simple/sessions/Sessions 05-11-25/PID002/enem_blocks_PID002_20251106_162601.csv,q_text_on,C3,2,47,2017,CH,concrete,1273.272791,3.2500000088475645e-05,,,,,Q_TEXT_ON,11,
PID002,PID002,20251106_162601,2025-11-06 16:26:01,enem_blocks_PID002_20251106_162601.csv,/home/thiago/Documents/fnirs/simple/sessions/Sessions 05-11-25/PID002/enem_blocks_PID002_20251106_162601.csv,q_stem_on,C3,2,47,2017,CH,concrete,1289.199441,3.1299998227041215e-05,,,,,Q_STEM_ON,14,
PID002,PID002,20251106_162601,2025-11-06 16:26:01,enem_blocks_PID002_20251106_162601.csv,/home/thiago/Documents/fnirs/simple/sessions/Sessions 05-11-25/PID002/enem_blocks_PID002_20251106_162601.csv,q_options_on,C3,2,47,2017,CH,concrete,1293.917086,5.129999954078812e-05,,,,,Q_OPTIONS_ON,15,
PID002,PID002,20251106_162601,2025-11-06 16:26:01,enem_blocks_PID002_20251106_162601.csv,/home/thiago/Documents/fnirs/simple/sessions/Sessions 05-11-25/PID002/enem_blocks_PID002_20251106_162601.csv,answer,C3,2,47,2017,CH,concrete,1319.70241,25.78537469999901,D,,,25.785367,ANS_D,24,
PID002,PID002,20251106_162601,2025-11-06 16:26:01,enem_blocks_PID002_20251106_162601.csv,/home/thiago/Documents/fnirs/simple/sessions/Sessions 05-11-25/PID002/enem_blocks_PID002_20251106_162601.csv,iti,C3,3,59,2020,CH,concrete,1323.52706,3.317053800001304,,,,,ITI,99,ITI duration: 3.31s
PID002,PID002,20251106_162601,2025-11-06 16:26:01,enem_blocks_PID002_20251106_162601.csv,/home/thiago/Documents/fnirs/simple/sessions/Sessions 05-11-25/PID002/enem_blocks_PID002_20251106_162601.csv,q_text_on,C3,3,59,2020,CH,concrete,1323.545867,3.9000000469968654e-05,,,,,Q_TEXT_ON,11,
PID002,PID002,20251106_162601,2025-11-06 16:26:01,enem_blocks_PID002_20251106_162601.csv,/home/thiago/Documents/fnirs/simple/sessions/Sessions 05-11-25/PID002/enem_blocks_PID002_20251106_162601.csv,q_stem_on,C3,3,59,2020,CH,concrete,1347.758431,4.039999839733355e-05,,,,,Q_STEM_ON,14,
PID002,PID002,20251106_162601,2025-11-06 16:26:01,enem_blocks_PID002_20251106_162601.csv,/home/thiago/Documents/fnirs/simple/sessions/Sessions 05-11-25/PID002/enem_blocks_PID002_20251106_162601.csv,q_options_on,C3,3,59,2020,CH,concrete,1351.847249,3.4199998481199145e-05,,,,,Q_OPTIONS_ON,15,
PID002,PID002,20251106_162601,2025-11-06 16:26:01,enem_blocks_PID002_20251106_162601.csv,/home/thiago/Documents/fnirs/simple/sessions/Sessions 05-11-25/PID002/enem_blocks_PID002_20251106_162601.csv,answer,C3,3,59,2020,CH,concrete,1388.659063,36.81184799999937,C,,,36.811835,ANS_C,23,
PID002,PID002,20251106_162601,2025-11-06 16:26:01,enem_blocks_PID002_20251106_162601.csv,/home/thiago/Documents/fnirs/simple/sessions/Sessions 05-11-25/PID002/enem_blocks_PID002_20251106_162601.csv,block_end,C3,-1,,,,,1496.681807,,,,,,BLK_OFF,92,C3 end (actual 420.0s)
PID002,PID002,20251106_162601,2025-11-06 16:26:01,enem_blocks_PID002_20251106_162601.csv,/home/thiago/Documents/fnirs/simple/sessions/Sessions 05-11-25/PID002/enem_blocks_PID002_20251106_162601.csv,block_start,C4,-1,,,,,1498.750443,,,,,,BLK_ON,91,C4 start (target 420s)
PID002,PID002,20251106_162601,2025-11-06 16:26:01,enem_blocks_PID002_20251106_162601.csv,/home/thiago/Documents/fnirs/simple/sessions/Sessions 05-11-25/PID002/enem_blocks_PID002_20251106_162601.csv,iti,C4,1,75,2017,CH,concrete,1503.283396,4.532836500000485,,,,,ITI,99,ITI duration: 4.51s
PID002,PID002,20251106_162601,2025-11-06 16:26:01,enem_blocks_PID002_20251106_162601.csv,/home/thiago/Documents/fnirs/simple/sessions/Sessions 05-11-25/PID002/enem_blocks_PID002_20251106_162601.csv,q_text_on,C4,1,75,2017,CH,concrete,1503.359638,3.6699999327538535e-05,,,,,Q_TEXT_ON,11,
PID002,PID002,20251106_162601,2025-11-06 16:26:01,enem_blocks_PID002_20251106_162601.csv,/home/thiago/Documents/fnirs/simple/sessions/Sessions 05-11-25/PID002/enem_blocks_PID002_20251106_162601.csv,q_stem_on,C4,1,75,2017,CH,concrete,1534.628126,3.819999983534217e-05,,,,,Q_STEM_ON,14,
PID002,PID002,20251106_162601,2025-11-06 16:26:01,enem_blocks_PID002_20251106_162601.csv,/home/thiago/Documents/fnirs/simple/sessions/Sessions 05-11-25/PID002/enem_blocks_PID002_20251106_162601.csv,q_options_on,C4,1,75,2017,CH,concrete,1536.441715,3.710000055434648e-05,,,,,Q_OPTIONS_ON,15,
PID002,PID002,20251106_162601,2025-11-06 16:26:01,enem_blocks_PID002_20251106_162601.csv,/home/thiago/Documents/fnirs/simple/sessions/Sessions 05-11-25/PID002/enem_blocks_PID002_20251106_162601.csv,answer,C4,1,75,2017,CH,concrete,1592.994012,56.55233419999968,E,,,56.552314,ANS_E,25,
PID002,PID002,20251106_162601,2025-11-06 16:26:01,enem_blocks_PID002_20251106_162601.csv,/home/thiago/Documents/fnirs/simple/sessions/Sessions 05-11-25/PID002/enem_blocks_PID002_20251106_162601.csv,iti,C4,2,84,2020,CH,concrete,1596.785919,3.2842516000000614,,,,,ITI,99,ITI duration: 3.28s
PID002,PID002,20251106_162601,2025-11-06 16:26:01,enem_blocks_PID002_20251106_162601.csv,/home/thiago/Documents/fnirs/simple/sessions/Sessions 05-11-25/PID002/enem_blocks_PID002_20251106_162601.csv,q_text_on,C4,2,84,2020,CH,concrete,1596.795871,3.04000004689442e-05,,,,,Q_TEXT_ON,11,
PID002,PID002,20251106_162601,2025-11-06 16:26:01,enem_blocks_PID002_20251106_162601.csv,/home/thiago/Documents/fnirs/simple/sessions/Sessions 05-11-25/PID002/enem_blocks_PID002_20251106_162601.csv,q_stem_on,C4,2,84,2020,CH,concrete,1619.735053,3.2100000680657104e-05,,,,,Q_STEM_ON,14,
PID002,PID002,20251106_162601,2025-11-06 16:26:01,enem_blocks_PID002_20251106_162601.csv,/home/thiago/Documents/fnirs/simple/sessions/Sessions 05-11-25/PID002/enem_blocks_PID002_20251106_162601.csv,q_options_on,C4,2,84,2020,CH,concrete,1625.153197,3.499999911582563e-05,,,,,Q_OPTIONS_ON,15,
PID002,PID002,20251106_162601,2025-11-06 16:26:01,enem_blocks_PID002_20251106_162601.csv,/home/thiago/Documents/fnirs/simple/sessions/Sessions 05-11-25/PID002/enem_blocks_PID002_20251106_162601.csv,answer,C4,2,84,2020,CH,concrete,1676.41375,51.260588400000415,E,,,51.260567,ANS_E,25,
PID002,PID002,20251106_162601,2025-11-06 16:26:01,enem_blocks_PID002_20251106_162601.csv,/home/thiago/Documents/fnirs/simple/sessions/Sessions 05-11-25/PID002/enem_blocks_PID002_20251106_162601.csv,iti,C4,3,82,2020,CH,concrete,1680.570263,3.6480233000002045,,,,,ITI,99,ITI duration: 3.64s
PID002,PID002,20251106_162601,2025-11-06 16:26:01,enem_blocks_PID002_20251106_162601.csv,/home/thiago/Documents/fnirs/simple/sessions/Sessions 05-11-25/PID002/enem_blocks_PID002_20251106_162601.csv,q_text_on,C4,3,82,2020,CH,concrete,1680.58828,3.440000000409782e-05,,,,,Q_TEXT_ON,11,
PID002,PID002,20251106_162601,2025-11-06 16:26:01,enem_blocks_PID002_20251106_162601.csv,/home/thiago/Documents/fnirs/simple/sessions/Sessions 05-11-25/PID002/enem_blocks_PID002_20251106_162601.csv,q_stem_on,C4,3,82,2020,CH,concrete,1723.220491,5.6400000175926834e-05,,,,,Q_STEM_ON,14,
PID002,PID002,20251106_162601,2025-11-06 16:26:01,enem_blocks_PID002_20251106_162601.csv,/home/thiago/Documents/fnirs/simple/sessions/Sessions 05-11-25/PID002/enem_blocks_PID002_20251106_162601.csv,q_options_on,C4,3,82,2020,CH,concrete,1727.508301,3.2699999792384915e-05,,,,,Q_OPTIONS_ON,15,
PID002,PID002,20251106_162601,2025-11-06 16:26:01,enem_blocks_PID002_20251106_162601.csv,/home/thiago/Documents/fnirs/simple/sessions/Sessions 05-11-25/PID002/enem_blocks_PID002_20251106_162601.csv,answer,C4,3,82,2020,CH,concrete,1742.303168,14.794899499998792,A,,,14.794876,ANS_A,21,
PID002,PID002,20251106_162601,2025-11-06 16:26:01,enem_blocks_PID002_20251106_162601.csv,/home/thiago/Documents/fnirs/simple/sessions/Sessions 05-11-25/PID002/enem_blocks_PID002_20251106_162601.csv,block_end,C4,-1,,,,,1918.765532,,,,,,BLK_OFF,92,C4 end (actual 420.0s)
PID002,PID002,20251106_162601,2025-11-06 16:26:01,enem_blocks_PID002_20251106_162601.csv,/home/thiago/Documents/fnirs/simple/sessions/Sessions 05-11-25/PID002/enem_blocks_PID002_20251106_162601.csv,block_start,C5,-1,,,,,1920.483552,,,,,,BLK_ON,91,C5 start (target 420s)
PID002,PID002,20251106_162601,2025-11-06 16:26:01,enem_blocks_PID002_20251106_162601.csv,/home/thiago/Documents/fnirs/simple/sessions/Sessions 05-11-25/PID002/enem_blocks_PID002_20251106_162601.csv,iti,C5,1,68,2017,CH,concrete,1925.165709,4.682013199999346,,,,,ITI,99,ITI duration: 4.67s
PID002,PID002,20251106_162601,2025-11-06 16:26:01,enem_blocks_PID002_20251106_162601.csv,/home/thiago/Documents/fnirs/simple/sessions/Sessions 05-11-25/PID002/enem_blocks_PID002_20251106_162601.csv,q_text_on,C5,1,68,2017,CH,concrete,1925.175204,2.769999991869554e-05,,,,,Q_TEXT_ON,11,
PID002,PID002,20251106_162601,2025-11-06 16:26:01,enem_blocks_PID002_20251106_162601.csv,/home/thiago/Documents/fnirs/simple/sessions/Sessions 05-11-25/PID002/enem_blocks_PID002_20251106_162601.csv,q_stem_on,C5,1,68,2017,CH,concrete,1941.813009,3.909999941242859e-05,,,,,Q_STEM_ON,14,
PID002,PID002,20251106_162601,2025-11-06 16:26:01,enem_blocks_PID002_20251106_162601.csv,/home/thiago/Documents/fnirs/simple/sessions/Sessions 05-11-25/PID002/enem_blocks_PID002_20251106_162601.csv,q_options_on,C5,1,68,2017,CH,concrete,1946.024476,3.119999928458128e-05,,,,,Q_OPTIONS_ON,15,
PID002,PID002,20251106_162601,2025-11-06 16:26:01,enem_blocks_PID002_20251106_162601.csv,/home/thiago/Documents/fnirs/simple/sessions/Sessions 05-11-25/PID002/enem_blocks_PID002_20251106_162601.csv,answer,C5,1,68,2017,CH,concrete,2040.041395,94.0169492999994,E,,,94.016931,ANS_E,25,
PID002,PID002,20251106_162601,2025-11-06 16:26:01,enem_blocks_PID002_20251106_162601.csv,/home/thiago/Documents/fnirs/simple/sessions/Sessions 05-11-25/PID002/enem_blocks_PID002_20251106_162601.csv,iti,C5,2,56,2020,CH,concrete,2043.84757,3.2996443000010913,,,,,ITI,99,ITI duration: 3.28s
PID002,PID002,20251106_162601,2025-11-06 16:26:01,enem_blocks_PID002_20251106_162601.csv,/home/thiago/Documents/fnirs/simple/sessions/Sessions 05-11-25/PID002/enem_blocks_PID002_20251106_162601.csv,q_text_on,C5,2,56,2020,CH,concrete,2043.855452,2.750000021478627e-05,,,,,Q_TEXT_ON,11,
PID002,PID002,20251106_162601,2025-11-06 16:26:01,enem_blocks_PID002_20251106_162601.csv,/home/thiago/Documents/fnirs/simple/sessions/Sessions 05-11-25/PID002/enem_blocks_PID002_20251106_162601.csv,q_stem_on,C5,2,56,2020,CH,concrete,2051.334795,3.3099999200203456e-05,,,,,Q_STEM_ON,14,
PID002,PID002,20251106_162601,2025-11-06 16:26:01,enem_blocks_PID002_20251106_162601.csv,/home/thiago/Documents/fnirs/simple/sessions/Sessions 05-11-25/PID002/enem_blocks_PID002_20251106_162601.csv,q_options_on,C5,2,56,2020,CH,concrete,2055.455945,3.2699999792384915e-05,,,,,Q_OPTIONS_ON,15,
PID002,PID002,20251106_162601,2025-11-06 16:26:01,enem_blocks_PID002_20251106_162601.csv,/home/thiago/Documents/fnirs/simple/sessions/Sessions 05-11-25/PID002/enem_blocks_PID002_20251106_162601.csv,answer,C5,2,56,2020,CH,concrete,2074.7856,19.32968720000099,D,,,19.329663,ANS_D,24,
PID002,PID002,20251106_162601,2025-11-06 16:26:01,enem_blocks_PID002_20251106_162601.csv,/home/thiago/Documents/fnirs/simple/sessions/Sessions 05-11-25/PID002/enem_blocks_PID002_20251106_162601.csv,iti,C5,3,69,2017,CH,concrete,2079.842483,4.550370599999951,,,,,ITI,99,ITI duration: 4.55s
PID002,PID002,20251106_162601,2025-11-06 16:26:01,enem_blocks_PID002_20251106_162601.csv,/home/thiago/Documents/fnirs/simple/sessions/Sessions 05-11-25/PID002/enem_blocks_PID002_20251106_162601.csv,q_text_on,C5,3,69,2017,CH,concrete,2079.858262,3.389999983482994e-05,,,,,Q_TEXT_ON,11,
PID002,PID002,20251106_162601,2025-11-06 16:26:01,enem_blocks_PID002_20251106_162601.csv,/home/thiago/Documents/fnirs/simple/sessions/Sessions 05-11-25/PID002/enem_blocks_PID002_20251106_162601.csv,q_stem_on,C5,3,69,2017,CH,concrete,2101.758402,3.370000013092067e-05,,,,,Q_STEM_ON,14,
PID002,PID002,20251106_162601,2025-11-06 16:26:01,enem_blocks_PID002_20251106_162601.csv,/home/thiago/Documents/fnirs/simple/sessions/Sessions 05-11-25/PID002/enem_blocks_PID002_20251106_162601.csv,q_options_on,C5,3,69,2017,CH,concrete,2116.83081,3.04000004689442e-05,,,,,Q_OPTIONS_ON,15,
PID002,PID002,20251106_162601,2025-11-06 16:26:01,enem_blocks_PID002_20251106_162601.csv,/home/thiago/Documents/fnirs/simple/sessions/Sessions 05-11-25/PID002/enem_blocks_PID002_20251106_162601.csv,answer,C5,3,69,2017,CH,concrete,2173.768616,56.937836700000844,D,,,56.937818,ANS_D,24,
PID002,PID002,20251106_162601,2025-11-06 16:26:01,enem_blocks_PID002_20251106_162601.csv,/home/thiago/Documents/fnirs/simple/sessions/Sessions 05-11-25/PID002/enem_blocks_PID002_20251106_162601.csv,block_end,C5,-1,,,,,2340.499639,,,,,,BLK_OFF,92,C5 end (actual 420.0s)
PID002,PID002,20251106_162601,2025-11-06 16:26:01,enem_blocks_PID002_20251106_162601.csv,/home/thiago/Documents/fnirs/simple/sessions/Sessions 05-11-25/PID002/enem_blocks_PID002_20251106_162601.csv,block_start,A1,-1,,,,,2345.300518,,,,,,BLK_ON,91,A1 start (target 420s)
PID002,PID002,20251106_162601,2025-11-06 16:26:01,enem_blocks_PID002_20251106_162601.csv,/home/thiago/Documents/fnirs/simple/sessions/Sessions 05-11-25/PID002/enem_blocks_PID002_20251106_162601.csv,iti,A1,1,56,2019,CH,abstract,2348.41641,3.1157397000006313,,,,,ITI,99,ITI duration: 3.10s
PID002,PID002,20251106_162601,2025-11-06 16:26:01,enem_blocks_PID002_20251106_162601.csv,/home/thiago/Documents/fnirs/simple/sessions/Sessions 05-11-25/PID002/enem_blocks_PID002_20251106_162601.csv,q_text_on,A1,1,56,2019,CH,abstract,2348.434359,3.330000072310213e-05,,,,,Q_TEXT_ON,11,
PID002,PID002,20251106_162601,2025-11-06 16:26:01,enem_blocks_PID002_20251106_162601.csv,/home/thiago/Documents/fnirs/simple/sessions/Sessions 05-11-25/PID002/enem_blocks_PID002_20251106_162601.csv,q_stem_on,A1,1,56,2019,CH,abstract,2372.618459,4.239999907440506e-05,,,,,Q_STEM_ON,14,
PID002,PID002,20251106_162601,2025-11-06 16:26:01,enem_blocks_PID002_20251106_162601.csv,/home/thiago/Documents/fnirs/simple/sessions/Sessions 05-11-25/PID002/enem_blocks_PID002_20251106_162601.csv,q_options_on,A1,1,56,2019,CH,abstract,2378.188092,3.169999945384916e-05,,,,,Q_OPTIONS_ON,15,
PID002,PID002,20251106_162601,2025-11-06 16:26:01,enem_blocks_PID002_20251106_162601.csv,/home/thiago/Documents/fnirs/simple/sessions/Sessions 05-11-25/PID002/enem_blocks_PID002_20251106_162601.csv,answer,A1,1,56,2019,CH,abstract,2449.476366,71.28830639999978,B,,,71.288295,ANS_B,22,
PID002,PID002,20251106_162601,2025-11-06 16:26:01,enem_blocks_PID002_20251106_162601.csv,/home/thiago/Documents/fnirs/simple/sessions/Sessions 05-11-25/PID002/enem_blocks_PID002_20251106_162601.csv,iti,A1,2,65,2021,CH,abstract,2454.316361,4.332461800000601,,,,,ITI,99,ITI duration: 4.32s
PID002,PID002,20251106_162601,2025-11-06 16:26:01,enem_blocks_PID002_20251106_162601.csv,/home/thiago/Documents/fnirs/simple/sessions/Sessions 05-11-25/PID002/enem_blocks_PID002_20251106_162601.csv,q_text_on,A1,2,65,2021,CH,abstract,2454.332249,3.6899999031447805e-05,,,,,Q_TEXT_ON,11,
PID002,PID002,20251106_162601,2025-11-06 16:26:01,enem_blocks_PID002_20251106_162601.csv,/home/thiago/Documents/fnirs/simple/sessions/Sessions 05-11-25/PID002/enem_blocks_PID002_20251106_162601.csv,q_stem_on,A1,2,65,2021,CH,abstract,2479.881627,4.73000000056345e-05,,,,,Q_STEM_ON,14,
PID002,PID002,20251106_162601,2025-11-06 16:26:01,enem_blocks_PID002_20251106_162601.csv,/home/thiago/Documents/fnirs/simple/sessions/Sessions 05-11-25/PID002/enem_blocks_PID002_20251106_162601.csv,q_options_on,A1,2,65,2021,CH,abstract,2483.107927,3.839999953925144e-05,,,,,Q_OPTIONS_ON,15,
PID002,PID002,20251106_162601,2025-11-06 16:26:01,enem_blocks_PID002_20251106_162601.csv,/home/thiago/Documents/fnirs/simple/sessions/Sessions 05-11-25/PID002/enem_blocks_PID002_20251106_162601.csv,answer,A1,2,65,2021,CH,abstract,2507.233679,24.125790100000813,A,,,24.125767,ANS_A,21,
PID002,PID002,20251106_162601,2025-11-06 16:26:01,enem_blocks_PID002_20251106_162601.csv,/home/thiago/Documents/fnirs/simple/sessions/Sessions 05-11-25/PID002/enem_blocks_PID002_20251106_162601.csv,iti,A1,3,77,2020,CH,abstract,2510.991545,3.250902199999473,,,,,ITI,99,ITI duration: 3.23s
PID002,PID002,20251106_162601,2025-11-06 16:26:01,enem_blocks_PID002_20251106_162601.csv,/home/thiago/Documents/fnirs/simple/sessions/Sessions 05-11-25/PID002/enem_blocks_PID002_20251106_162601.csv,q_text_on,A1,3,77,2020,CH,abstract,2511.009058,3.2699999792384915e-05,,,,,Q_TEXT_ON,11,
PID002,PID002,20251106_162601,2025-11-06 16:26:01,enem_blocks_PID002_20251106_162601.csv,/home/thiago/Documents/fnirs/simple/sessions/Sessions 05-11-25/PID002/enem_blocks_PID002_20251106_162601.csv,q_stem_on,A1,3,77,2020,CH,abstract,2546.857205,3.3599999369471334e-05,,,,,Q_STEM_ON,14,
PID002,PID002,20251106_162601,2025-11-06 16:26:01,enem_blocks_PID002_20251106_162601.csv,/home/thiago/Documents/fnirs/simple/sessions/Sessions 05-11-25/PID002/enem_blocks_PID002_20251106_162601.csv,q_options_on,A1,3,77,2020,CH,abstract,2552.849294,3.130000004603062e-05,,,,,Q_OPTIONS_ON,15,
PID002,PID002,20251106_162601,2025-11-06 16:26:01,enem_blocks_PID002_20251106_162601.csv,/home/thiago/Documents/fnirs/simple/sessions/Sessions 05-11-25/PID002/enem_blocks_PID002_20251106_162601.csv,answer,A1,3,77,2020,CH,abstract,2604.701778,51.8525152000002,A,,,51.852497,ANS_A,21,
PID002,PID002,20251106_162601,2025-11-06 16:26:01,enem_blocks_PID002_20251106_162601.csv,/home/thiago/Documents/fnirs/simple/sessions/Sessions 05-11-25/PID002/enem_blocks_PID002_20251106_162601.csv,block_end,A1,-1,,,,,2765.315949,,,,,,BLK_OFF,92,A1 end (actual 420.0s)
PID002,PID002,20251106_162601,2025-11-06 16:26:01,enem_blocks_PID002_20251106_162601.csv,/home/thiago/Documents/fnirs/simple/sessions/Sessions 05-11-25/PID002/enem_blocks_PID002_20251106_162601.csv,block_start,A2,-1,,,,,2768.267489,,,,,,BLK_ON,91,A2 start (target 420s)
PID002,PID002,20251106_162601,2025-11-06 16:26:01,enem_blocks_PID002_20251106_162601.csv,/home/thiago/Documents/fnirs/simple/sessions/Sessions 05-11-25/PID002/enem_blocks_PID002_20251106_162601.csv,iti,A2,1,57,2021,CH,abstract,2772.999492,4.731932600001528,,,,,ITI,99,ITI duration: 4.73s
PID002,PID002,20251106_162601,2025-11-06 16:26:01,enem_blocks_PID002_20251106_162601.csv,/home/thiago/Documents/fnirs/simple/sessions/Sessions 05-11-25/PID002/enem_blocks_PID002_20251106_162601.csv,q_text_on,A2,1,57,2021,CH,abstract,2773.014943,3.420000030018855e-05,,,,,Q_TEXT_ON,11,
PID002,PID002,20251106_162601,2025-11-06 16:26:01,enem_blocks_PID002_20251106_162601.csv,/home/thiago/Documents/fnirs/simple/sessions/Sessions 05-11-25/PID002/enem_blocks_PID002_20251106_162601.csv,q_stem_on,A2,1,57,2021,CH,abstract,2790.815992,4.050000097777229e-05,,,,,Q_STEM_ON,14,
PID002,PID002,20251106_162601,2025-11-06 16:26:01,enem_blocks_PID002_20251106_162601.csv,/home/thiago/Documents/fnirs/simple/sessions/Sessions 05-11-25/PID002/enem_blocks_PID002_20251106_162601.csv,q_options_on,A2,1,57,2021,CH,abstract,2794.626543,3.1400000807479955e-05,,,,,Q_OPTIONS_ON,15,
PID002,PID002,20251106_162601,2025-11-06 16:26:01,enem_blocks_PID002_20251106_162601.csv,/home/thiago/Documents/fnirs/simple/sessions/Sessions 05-11-25/PID002/enem_blocks_PID002_20251106_162601.csv,answer,A2,1,57,2021,CH,abstract,2855.39528,60.76876900000025,B,,,60.768756,ANS_B,22,
PID002,PID002,20251106_162601,2025-11-06 16:26:01,enem_blocks_PID002_20251106_162601.csv,/home/thiago/Documents/fnirs/simple/sessions/Sessions 05-11-25/PID002/enem_blocks_PID002_20251106_162601.csv,iti,A2,2,76,2020,CH,abstract,2859.551766,3.648830199999793,,,,,ITI,99,ITI duration: 3.64s
PID002,PID002,20251106_162601,2025-11-06 16:26:01,enem_blocks_PID002_20251106_162601.csv,/home/thiago/Documents/fnirs/simple/sessions/Sessions 05-11-25/PID002/enem_blocks_PID002_20251106_162601.csv,q_text_on,A2,2,76,2020,CH,abstract,2859.565067,3.0199998946045525e-05,,,,,Q_TEXT_ON,11,
PID002,PID002,20251106_162601,2025-11-06 16:26:01,enem_blocks_PID002_20251106_162601.csv,/home/thiago/Documents/fnirs/simple/sessions/Sessions 05-11-25/PID002/enem_blocks_PID002_20251106_162601.csv,q_stem_on,A2,2,76,2020,CH,abstract,2888.43161,4.239999907440506e-05,,,,,Q_STEM_ON,14,
PID002,PID002,20251106_162601,2025-11-06 16:26:01,enem_blocks_PID002_20251106_162601.csv,/home/thiago/Documents/fnirs/simple/sessions/Sessions 05-11-25/PID002/enem_blocks_PID002_20251106_162601.csv,q_options_on,A2,2,76,2020,CH,abstract,2896.738695,3.699999979289714e-05,,,,,Q_OPTIONS_ON,15,
PID002,PID002,20251106_162601,2025-11-06 16:26:01,enem_blocks_PID002_20251106_162601.csv,/home/thiago/Documents/fnirs/simple/sessions/Sessions 05-11-25/PID002/enem_blocks_PID002_20251106_162601.csv,answer,A2,2,76,2020,CH,abstract,3006.105358,109.36669970000003,B,,,109.366689,ANS_B,22,
PID002,PID002,20251106_162601,2025-11-06 16:26:01,enem_blocks_PID002_20251106_162601.csv,/home/thiago/Documents/fnirs/simple/sessions/Sessions 05-11-25/PID002/enem_blocks_PID002_20251106_162601.csv,iti,A2,3,86,2021,CH,abstract,3011.197962,4.585290899998654,,,,,ITI,99,ITI duration: 4.57s
PID002,PID002,20251106_162601,2025-11-06 16:26:01,enem_blocks_PID002_20251106_162601.csv,/home/thiago/Documents/fnirs/simple/sessions/Sessions 05-11-25/PID002/enem_blocks_PID002_20251106_162601.csv,q_text_on,A2,3,86,2021,CH,abstract,3011.207617,3.199999991920777e-05,,,,,Q_TEXT_ON,11,
PID002,PID002,20251106_162601,2025-11-06 16:26:01,enem_blocks_PID002_20251106_162601.csv,/home/thiago/Documents/fnirs/simple/sessions/Sessions 05-11-25/PID002/enem_blocks_PID002_20251106_162601.csv,q_stem_on,A2,3,86,2021,CH,abstract,3043.596664,3.63000017387094e-05,,,,,Q_STEM_ON,14,
PID002,PID002,20251106_162601,2025-11-06 16:26:01,enem_blocks_PID002_20251106_162601.csv,/home/thiago/Documents/fnirs/simple/sessions/Sessions 05-11-25/PID002/enem_blocks_PID002_20251106_162601.csv,q_options_on,A2,3,86,2021,CH,abstract,3049.965041,3.870000000461005e-05,,,,,Q_OPTIONS_ON,15,
PID002,PID002,20251106_162601,2025-11-06 16:26:01,enem_blocks_PID002_20251106_162601.csv,/home/thiago/Documents/fnirs/simple/sessions/Sessions 05-11-25/PID002/enem_blocks_PID002_20251106_162601.csv,answer,A2,3,86,2021,CH,abstract,3104.37436,54.40935849999914,A,,,54.409342,ANS_A,21,
PID002,PID002,20251106_162601,2025-11-06 16:26:01,enem_blocks_PID002_20251106_162601.csv,/home/thiago/Documents/fnirs/simple/sessions/Sessions 05-11-25/PID002/enem_blocks_PID002_20251106_162601.csv,block_end,A2,-1,,,,,3188.282553,,,,,,BLK_OFF,92,A2 end (actual 420.0s)
PID002,PID002,20251106_162601,2025-11-06 16:26:01,enem_blocks_PID002_20251106_162601.csv,/home/thiago/Documents/fnirs/simple/sessions/Sessions 05-11-25/PID002/enem_blocks_PID002_20251106_162601.csv,block_start,A3,-1,,,,,3193.985106,,,,,,BLK_ON,91,A3 start (target 420s)
PID002,PID002,20251106_162601,2025-11-06 16:26:01,enem_blocks_PID002_20251106_162601.csv,/home/thiago/Documents/fnirs/simple/sessions/Sessions 05-11-25/PID002/enem_blocks_PID002_20251106_162601.csv,iti,A3,1,31,2020,LC,abstract,3198.633214,4.647976399999607,,,,,ITI,99,ITI duration: 4.63s
PID002,PID002,20251106_162601,2025-11-06 16:26:01,enem_blocks_PID002_20251106_162601.csv,/home/thiago/Documents/fnirs/simple/sessions/Sessions 05-11-25/PID002/enem_blocks_PID002_20251106_162601.csv,q_text_on,A3,1,31,2020,LC,abstract,3198.650038,3.3299998904112726e-05,,,,,Q_TEXT_ON,11,
PID002,PID002,20251106_162601,2025-11-06 16:26:01,enem_blocks_PID002_20251106_162601.csv,/home/thiago/Documents/fnirs/simple/sessions/Sessions 05-11-25/PID002/enem_blocks_PID002_20251106_162601.csv,q_stem_on,A3,1,31,2020,LC,abstract,3242.226967,3.3399999665562063e-05,,,,,Q_STEM_ON,14,
PID002,PID002,20251106_162601,2025-11-06 16:26:01,enem_blocks_PID002_20251106_162601.csv,/home/thiago/Documents/fnirs/simple/sessions/Sessions 05-11-25/PID002/enem_blocks_PID002_20251106_162601.csv,q_options_on,A3,1,31,2020,LC,abstract,3250.370905,4.630000148608815e-05,,,,,Q_OPTIONS_ON,15,
PID002,PID002,20251106_162601,2025-11-06 16:26:01,enem_blocks_PID002_20251106_162601.csv,/home/thiago/Documents/fnirs/simple/sessions/Sessions 05-11-25/PID002/enem_blocks_PID002_20251106_162601.csv,answer,A3,1,31,2020,LC,abstract,3298.060492,47.689632900001016,E,,,47.689605,ANS_E,25,
PID002,PID002,20251106_162601,2025-11-06 16:26:01,enem_blocks_PID002_20251106_162601.csv,/home/thiago/Documents/fnirs/simple/sessions/Sessions 05-11-25/PID002/enem_blocks_PID002_20251106_162601.csv,iti,A3,2,51,2022,CH,abstract,3303.365652,4.798540200001298,,,,,ITI,99,ITI duration: 4.78s
PID002,PID002,20251106_162601,2025-11-06 16:26:01,enem_blocks_PID002_20251106_162601.csv,/home/thiago/Documents/fnirs/simple/sessions/Sessions 05-11-25/PID002/enem_blocks_PID002_20251106_162601.csv,q_text_on,A3,2,51,2022,CH,abstract,3303.381227,4.020000051241368e-05,,,,,Q_TEXT_ON,11,
PID002,PID002,20251106_162601,2025-11-06 16:26:01,enem_blocks_PID002_20251106_162601.csv,/home/thiago/Documents/fnirs/simple/sessions/Sessions 05-11-25/PID002/enem_blocks_PID002_20251106_162601.csv,q_stem_on,A3,2,51,2022,CH,abstract,3329.5495,3.600000127335079e-05,,,,,Q_STEM_ON,14,
PID002,PID002,20251106_162601,2025-11-06 16:26:01,enem_blocks_PID002_20251106_162601.csv,/home/thiago/Documents/fnirs/simple/sessions/Sessions 05-11-25/PID002/enem_blocks_PID002_20251106_162601.csv,q_options_on,A3,2,51,2022,CH,abstract,3336.741079,4.3599999116850086e-05,,,,,Q_OPTIONS_ON,15,
PID002,PID002,20251106_162601,2025-11-06 16:26:01,enem_blocks_PID002_20251106_162601.csv,/home/thiago/Documents/fnirs/simple/sessions/Sessions 05-11-25/PID002/enem_blocks_PID002_20251106_162601.csv,answer,A3,2,51,2022,CH,abstract,3381.413869,44.67283429999952,E,,,44.672826,ANS_E,25,
PID002,PID002,20251106_162601,2025-11-06 16:26:01,enem_blocks_PID002_20251106_162601.csv,/home/thiago/Documents/fnirs/simple/sessions/Sessions 05-11-25/PID002/enem_blocks_PID002_20251106_162601.csv,iti,A3,3,47,2022,CH,abstract,3385.603495,3.683137699999861,,,,,ITI,99,ITI duration: 3.67s
PID002,PID002,20251106_162601,2025-11-06 16:26:01,enem_blocks_PID002_20251106_162601.csv,/home/thiago/Documents/fnirs/simple/sessions/Sessions 05-11-25/PID002/enem_blocks_PID002_20251106_162601.csv,q_text_on,A3,3,47,2022,CH,abstract,3385.617866,4.9700000090524554e-05,,,,,Q_TEXT_ON,11,
PID002,PID002,20251106_162601,2025-11-06 16:26:01,enem_blocks_PID002_20251106_162601.csv,/home/thiago/Documents/fnirs/simple/sessions/Sessions 05-11-25/PID002/enem_blocks_PID002_20251106_162601.csv,q_stem_on,A3,3,47,2022,CH,abstract,3425.63587,4.4099999286117963e-05,,,,,Q_STEM_ON,14,
PID002,PID002,20251106_162601,2025-11-06 16:26:01,enem_blocks_PID002_20251106_162601.csv,/home/thiago/Documents/fnirs/simple/sessions/Sessions 05-11-25/PID002/enem_blocks_PID002_20251106_162601.csv,q_options_on,A3,3,47,2022,CH,abstract,3429.491251,5.050000072515104e-05,,,,,Q_OPTIONS_ON,15,
PID002,PID002,20251106_162601,2025-11-06 16:26:01,enem_blocks_PID002_20251106_162601.csv,/home/thiago/Documents/fnirs/simple/sessions/Sessions 05-11-25/PID002/enem_blocks_PID002_20251106_162601.csv,answer,A3,3,47,2022,CH,abstract,3503.477199,73.98599800000011,E,,,73.985988,ANS_E,25,
PID002,PID002,20251106_162601,2025-11-06 16:26:01,enem_blocks_PID002_20251106_162601.csv,/home/thiago/Documents/fnirs/simple/sessions/Sessions 05-11-25/PID002/enem_blocks_PID002_20251106_162601.csv,block_end,A3,-1,,,,,3613.999679,,,,,,BLK_OFF,92,A3 end (actual 420.0s)
PID002,PID002,20251106_162601,2025-11-06 16:26:01,enem_blocks_PID002_20251106_162601.csv,/home/thiago/Documents/fnirs/simple/sessions/Sessions 05-11-25/PID002/enem_blocks_PID002_20251106_162601.csv,block_start,A4,-1,,,,,3616.251629,,,,,,BLK_ON,91,A4 start (target 420s)
PID002,PID002,20251106_162601,2025-11-06 16:26:01,enem_blocks_PID002_20251106_162601.csv,/home/thiago/Documents/fnirs/simple/sessions/Sessions 05-11-25/PID002/enem_blocks_PID002_20251106_162601.csv,iti,A4,1,64,2019,CH,abstract,3620.067086,3.81529700000101,,,,,ITI,99,ITI duration: 3.80s
PID002,PID002,20251106_162601,2025-11-06 16:26:01,enem_blocks_PID002_20251106_162601.csv,/home/thiago/Documents/fnirs/simple/sessions/Sessions 05-11-25/PID002/enem_blocks_PID002_20251106_162601.csv,q_text_on,A4,1,64,2019,CH,abstract,3620.08807,3.5000000934815034e-05,,,,,Q_TEXT_ON,11,
PID002,PID002,20251106_162601,2025-11-06 16:26:01,enem_blocks_PID002_20251106_162601.csv,/home/thiago/Documents/fnirs/simple/sessions/Sessions 05-11-25/PID002/enem_blocks_PID002_20251106_162601.csv,q_stem_on,A4,1,64,2019,CH,abstract,3650.250729,3.600000127335079e-05,,,,,Q_STEM_ON,14,
PID002,PID002,20251106_162601,2025-11-06 16:26:01,enem_blocks_PID002_20251106_162601.csv,/home/thiago/Documents/fnirs/simple/sessions/Sessions 05-11-25/PID002/enem_blocks_PID002_20251106_162601.csv,q_options_on,A4,1,64,2019,CH,abstract,3656.500521,3.259999903093558e-05,,,,,Q_OPTIONS_ON,15,
PID002,PID002,20251106_162601,2025-11-06 16:26:01,enem_blocks_PID002_20251106_162601.csv,/home/thiago/Documents/fnirs/simple/sessions/Sessions 05-11-25/PID002/enem_blocks_PID002_20251106_162601.csv,answer,A4,1,64,2019,CH,abstract,3717.661803,61.16131469999891,A,,,61.161294,ANS_A,21,
PID002,PID002,20251106_162601,2025-11-06 16:26:01,enem_blocks_PID002_20251106_162601.csv,/home/thiago/Documents/fnirs/simple/sessions/Sessions 05-11-25/PID002/enem_blocks_PID002_20251106_162601.csv,iti,A4,2,71,2022,CH,abstract,3721.633891,3.4658500000005006,,,,,ITI,99,ITI duration: 3.46s
PID002,PID002,20251106_162601,2025-11-06 16:26:01,enem_blocks_PID002_20251106_162601.csv,/home/thiago/Documents/fnirs/simple/sessions/Sessions 05-11-25/PID002/enem_blocks_PID002_20251106_162601.csv,q_text_on,A4,2,71,2022,CH,abstract,3721.644178,3.0299999707494862e-05,,,,,Q_TEXT_ON,11,
PID002,PID002,20251106_162601,2025-11-06 16:26:01,enem_blocks_PID002_20251106_162601.csv,/home/thiago/Documents/fnirs/simple/sessions/Sessions 05-11-25/PID002/enem_blocks_PID002_20251106_162601.csv,q_stem_on,A4,2,71,2022,CH,abstract,3738.733301,4.3199999709031545e-05,,,,,Q_STEM_ON,14,
PID002,PID002,20251106_162601,2025-11-06 16:26:01,enem_blocks_PID002_20251106_162601.csv,/home/thiago/Documents/fnirs/simple/sessions/Sessions 05-11-25/PID002/enem_blocks_PID002_20251106_162601.csv,q_options_on,A4,2,71,2022,CH,abstract,3745.690757,3.220000144210644e-05,,,,,Q_OPTIONS_ON,15,
PID002,PID002,20251106_162601,2025-11-06 16:26:01,enem_blocks_PID002_20251106_162601.csv,/home/thiago/Documents/fnirs/simple/sessions/Sessions 05-11-25/PID002/enem_blocks_PID002_20251106_162601.csv,answer,A4,2,71,2022,CH,abstract,3802.330263,56.639538400000674,A,,,56.639516,ANS_A,21,
PID002,PID002,20251106_162601,2025-11-06 16:26:01,enem_blocks_PID002_20251106_162601.csv,/home/thiago/Documents/fnirs/simple/sessions/Sessions 05-11-25/PID002/enem_blocks_PID002_20251106_162601.csv,iti,A4,3,51,2021,CH,abstract,3806.353647,3.5156784999999218,,,,,ITI,99,ITI duration: 3.50s
PID002,PID002,20251106_162601,2025-11-06 16:26:01,enem_blocks_PID002_20251106_162601.csv,/home/thiago/Documents/fnirs/simple/sessions/Sessions 05-11-25/PID002/enem_blocks_PID002_20251106_162601.csv,q_text_on,A4,3,51,2021,CH,abstract,3806.390581,3.3099999200203456e-05,,,,,Q_TEXT_ON,11,
PID002,PID002,20251106_162601,2025-11-06 16:26:01,enem_blocks_PID002_20251106_162601.csv,/home/thiago/Documents/fnirs/simple/sessions/Sessions 05-11-25/PID002/enem_blocks_PID002_20251106_162601.csv,q_stem_on,A4,3,51,2021,CH,abstract,3827.975339,4.3199999709031545e-05,,,,,Q_STEM_ON,14,
PID002,PID002,20251106_162601,2025-11-06 16:26:01,enem_blocks_PID002_20251106_162601.csv,/home/thiago/Documents/fnirs/simple/sessions/Sessions 05-11-25/PID002/enem_blocks_PID002_20251106_162601.csv,q_options_on,A4,3,51,2021,CH,abstract,3831.959973,3.5200000638724305e-05,,,,,Q_OPTIONS_ON,15,
PID002,PID002,20251106_162601,2025-11-06 16:26:01,enem_blocks_PID002_20251106_162601.csv,/home/thiago/Documents/fnirs/simple/sessions/Sessions 05-11-25/PID002/enem_blocks_PID002_20251106_162601.csv,answer,A4,3,51,2021,CH,abstract,3882.451335,50.491396699999314,A,,,50.491377,ANS_A,21,
PID002,PID002,20251106_162601,2025-11-06 16:26:01,enem_blocks_PID002_20251106_162601.csv,/home/thiago/Documents/fnirs/simple/sessions/Sessions 05-11-25/PID002/enem_blocks_PID002_20251106_162601.csv,block_end,A4,-1,,,,,4036.267283,,,,,,BLK_OFF,92,A4 end (actual 420.0s)
PID002,PID002,20251106_162601,2025-11-06 16:26:01,enem_blocks_PID002_20251106_162601.csv,/home/thiago/Documents/fnirs/simple/sessions/Sessions 05-11-25/PID002/enem_blocks_PID002_20251106_162601.csv,block_start,A5,-1,,,,,4039.269317,,,,,,BLK_ON,91,A5 start (target 420s)
PID002,PID002,20251106_162601,2025-11-06 16:26:01,enem_blocks_PID002_20251106_162601.csv,/home/thiago/Documents/fnirs/simple/sessions/Sessions 05-11-25/PID002/enem_blocks_PID002_20251106_162601.csv,iti,A5,1,60,2022,CH,abstract,4043.268005,3.9985749999996187,,,,,ITI,99,ITI duration: 4.00s
PID002,PID002,20251106_162601,2025-11-06 16:26:01,enem_blocks_PID002_20251106_162601.csv,/home/thiago/Documents/fnirs/simple/sessions/Sessions 05-11-25/PID002/enem_blocks_PID002_20251106_162601.csv,q_text_on,A5,1,60,2022,CH,abstract,4043.360811,4.129999979340937e-05,,,,,Q_TEXT_ON,11,
PID002,PID002,20251106_162601,2025-11-06 16:26:01,enem_blocks_PID002_20251106_162601.csv,/home/thiago/Documents/fnirs/simple/sessions/Sessions 05-11-25/PID002/enem_blocks_PID002_20251106_162601.csv,q_stem_on,A5,1,60,2022,CH,abstract,4067.881031,3.070000093430281e-05,,,,,Q_STEM_ON,14,
PID002,PID002,20251106_162601,2025-11-06 16:26:01,enem_blocks_PID002_20251106_162601.csv,/home/thiago/Documents/fnirs/simple/sessions/Sessions 05-11-25/PID002/enem_blocks_PID002_20251106_162601.csv,q_options_on,A5,1,60,2022,CH,abstract,4073.075084,3.389999983482994e-05,,,,,Q_OPTIONS_ON,15,
PID002,PID002,20251106_162601,2025-11-06 16:26:01,enem_blocks_PID002_20251106_162601.csv,/home/thiago/Documents/fnirs/simple/sessions/Sessions 05-11-25/PID002/enem_blocks_PID002_20251106_162601.csv,answer,A5,1,60,2022,CH,abstract,4121.464916,48.389865799999825,B,,,48.389837,ANS_B,22,
PID002,PID002,20251106_162601,2025-11-06 16:26:01,enem_blocks_PID002_20251106_162601.csv,/home/thiago/Documents/fnirs/simple/sessions/Sessions 05-11-25/PID002/enem_blocks_PID002_20251106_162601.csv,iti,A5,2,65,2019,CH,abstract,4125.18855,3.217811900000015,,,,,ITI,99,ITI duration: 3.21s
PID002,PID002,20251106_162601,2025-11-06 16:26:01,enem_blocks_PID002_20251106_162601.csv,/home/thiago/Documents/fnirs/simple/sessions/Sessions 05-11-25/PID002/enem_blocks_PID002_20251106_162601.csv,q_text_on,A5,2,65,2019,CH,abstract,4125.205097,3.819999983534217e-05,,,,,Q_TEXT_ON,11,
PID002,PID002,20251106_162601,2025-11-06 16:26:01,enem_blocks_PID002_20251106_162601.csv,/home/thiago/Documents/fnirs/simple/sessions/Sessions 05-11-25/PID002/enem_blocks_PID002_20251106_162601.csv,q_stem_on,A5,2,65,2019,CH,abstract,4151.252877,4.6999999540275894e-05,,,,,Q_STEM_ON,14,
PID002,PID002,20251106_162601,2025-11-06 16:26:01,enem_blocks_PID002_20251106_162601.csv,/home/thiago/Documents/fnirs/simple/sessions/Sessions 05-11-25/PID002/enem_blocks_PID002_20251106_162601.csv,q_options_on,A5,2,65,2019,CH,abstract,4158.309485,3.079999987676274e-05,,,,,Q_OPTIONS_ON,15,
PID002,PID002,20251106_162601,2025-11-06 16:26:01,enem_blocks_PID002_20251106_162601.csv,/home/thiago/Documents/fnirs/simple/sessions/Sessions 05-11-25/PID002/enem_blocks_PID002_20251106_162601.csv,answer,A5,2,65,2019,CH,abstract,4181.8714,23.561945400000695,A,,,23.561922,ANS_A,21,
PID002,PID002,20251106_162601,2025-11-06 16:26:01,enem_blocks_PID002_20251106_162601.csv,/home/thiago/Documents/fnirs/simple/sessions/Sessions 05-11-25/PID002/enem_blocks_PID002_20251106_162601.csv,iti,A5,3,83,2021,CH,abstract,4186.611267,4.231719700001122,,,,,ITI,99,ITI duration: 4.22s
PID002,PID002,20251106_162601,2025-11-06 16:26:01,enem_blocks_PID002_20251106_162601.csv,/home/thiago/Documents/fnirs/simple/sessions/Sessions 05-11-25/PID002/enem_blocks_PID002_20251106_162601.csv,q_text_on,A5,3,83,2021,CH,abstract,4186.632524,3.219999962311704e-05,,,,,Q_TEXT_ON,11,
PID002,PID002,20251106_162601,2025-11-06 16:26:01,enem_blocks_PID002_20251106_162601.csv,/home/thiago/Documents/fnirs/simple/sessions/Sessions 05-11-25/PID002/enem_blocks_PID002_20251106_162601.csv,q_stem_on,A5,3,83,2021,CH,abstract,4228.743082,4.600000102072954e-05,,,,,Q_STEM_ON,14,
PID002,PID002,20251106_162601,2025-11-06 16:26:01,enem_blocks_PID002_20251106_162601.csv,/home/thiago/Documents/fnirs/simple/sessions/Sessions 05-11-25/PID002/enem_blocks_PID002_20251106_162601.csv,q_options_on,A5,3,83,2021,CH,abstract,4232.950452,6.659999962721486e-05,,,,,Q_OPTIONS_ON,15,
PID002,PID002,20251106_162601,2025-11-06 16:26:01,enem_blocks_PID002_20251106_162601.csv,/home/thiago/Documents/fnirs/simple/sessions/Sessions 05-11-25/PID002/enem_blocks_PID002_20251106_162601.csv,answer,A5,3,83,2021,CH,abstract,4310.301067,77.35068110000066,A,,,77.350663,ANS_A,21,
PID002,PID002,20251106_162601,2025-11-06 16:26:01,enem_blocks_PID002_20251106_162601.csv,/home/thiago/Documents/fnirs/simple/sessions/Sessions 05-11-25/PID002/enem_blocks_PID002_20251106_162601.csv,block_end,A5,-1,,,,,4459.284278,,,,,,BLK_OFF,92,A5 end (actual 420.0s)
PID003,PID003,20251111_140525,2025-11-11 14:05:25,enem_blocks_PID003_20251111_140525.csv,/home/thiago/Documents/fnirs/simple/sessions/Sessions 11-11-25/PID003/enem_blocks_PID003_20251111_140525.csv,block_start,C1,-1,,,,,256.454894,,,,,,BLK_ON,91,C1 start (target 420s)
PID003,PID003,20251111_140525,2025-11-11 14:05:25,enem_blocks_PID003_20251111_140525.csv,/home/thiago/Documents/fnirs/simple/sessions/Sessions 11-11-25/PID003/enem_blocks_PID003_20251111_140525.csv,iti,C1,1,56,2020,CH,concrete,261.104116,4.649141100002453,,,,,ITI,99,ITI duration: 4.63s
PID003,PID003,20251111_140525,2025-11-11 14:05:25,enem_blocks_PID003_20251111_140525.csv,/home/thiago/Documents/fnirs/simple/sessions/Sessions 11-11-25/PID003/enem_blocks_PID003_20251111_140525.csv,q_text_on,C1,1,56,2020,CH,concrete,261.122108,3.8700003642588854e-05,,,,,Q_TEXT_ON,11,
PID003,PID003,20251111_140525,2025-11-11 14:05:25,enem_blocks_PID003_20251111_140525.csv,/home/thiago/Documents/fnirs/simple/sessions/Sessions 11-11-25/PID003/enem_blocks_PID003_20251111_140525.csv,button_click,C1,1,56,2020,CH,concrete,272.277811,11.155740900023375,,,11.155728,,BUTTON_CLICK,13,
PID003,PID003,20251111_140525,2025-11-11 14:05:25,enem_blocks_PID003_20251111_140525.csv,/home/thiago/Documents/fnirs/simple/sessions/Sessions 11-11-25/PID003/enem_blocks_PID003_20251111_140525.csv,q_stem_on,C1,1,56,2020,CH,concrete,272.403677,3.590004052966833e-05,,,,,Q_STEM_ON,14,
PID003,PID003,20251111_140525,2025-11-11 14:05:25,enem_blocks_PID003_20251111_140525.csv,/home/thiago/Documents/fnirs/simple/sessions/Sessions 11-11-25/PID003/enem_blocks_PID003_20251111_140525.csv,button_click,C1,1,56,2020,CH,concrete,280.909281,8.505640000046697,,,8.505632,,BUTTON_CLICK,13,
PID003,PID003,20251111_140525,2025-11-11 14:05:25,enem_blocks_PID003_20251111_140525.csv,/home/thiago/Documents/fnirs/simple/sessions/Sessions 11-11-25/PID003/enem_blocks_PID003_20251111_140525.csv,q_options_on,C1,1,56,2020,CH,concrete,281.066931,3.819999983534217e-05,,,,,Q_OPTIONS_ON,15,
PID003,PID003,20251111_140525,2025-11-11 14:05:25,enem_blocks_PID003_20251111_140525.csv,/home/thiago/Documents/fnirs/simple/sessions/Sessions 11-11-25/PID003/enem_blocks_PID003_20251111_140525.csv,answer,C1,1,56,2020,CH,concrete,288.007359,6.940466599946376,D,,,6.940457,ANS_D,24,
PID003,PID003,20251111_140525,2025-11-11 14:05:25,enem_blocks_PID003_20251111_140525.csv,/home/thiago/Documents/fnirs/simple/sessions/Sessions 11-11-25/PID003/enem_blocks_PID003_20251111_140525.csv,iti,C1,2,75,2017,CH,concrete,292.532636,4.01667650003219,,,,,ITI,99,ITI duration: 4.00s
PID003,PID003,20251111_140525,2025-11-11 14:05:25,enem_blocks_PID003_20251111_140525.csv,/home/thiago/Documents/fnirs/simple/sessions/Sessions 11-11-25/PID003/enem_blocks_PID003_20251111_140525.csv,q_text_on,C1,2,75,2017,CH,concrete,292.563573,3.6400044336915016e-05,,,,,Q_TEXT_ON,11,
PID003,PID003,20251111_140525,2025-11-11 14:05:25,enem_blocks_PID003_20251111_140525.csv,/home/thiago/Documents/fnirs/simple/sessions/Sessions 11-11-25/PID003/enem_blocks_PID003_20251111_140525.csv,button_click,C1,2,75,2017,CH,concrete,320.936419,28.37288180005271,,,28.372867,,BUTTON_CLICK,13,
