participant_id,participant_folder,timestamp_raw,timestamp_iso,source_log,source_log_full_path,block,block_type_from_block,block_index_within_type,global_block_order,order_condition,trial_idx_in_block,question_id,question_year,question_field,question_number,question_type_log,t_iti,t_text_on,t_stem_on,t_options_on,t_answer,rt_from_phase_answer,option_view_time,chosen_answer_raw,answer_marker_name,n_answer_rows,n_button_click_rows,button_click_times_json,trial_notes,trial_idx_global
PID001,PID001,20251106_124958,2025-11-06 12:49:58,enem_blocks_PID01_20251106_124958.csv,/home/thiago/Documents/fnirs/simple/sessions/Sessions 05-11-25/PID001/enem_blocks_PID01_20251106_124958.csv,A1,Abstract,1,1,AbstractFirst,1,2022_CH_51,2022,CH,51,abstract,354.170595,354.211628,423.410714,457.811284,505.005125,47.19387989999086,47.193861,A,ANS_A,1,0,[],ITI duration: 4.06s,1
PID001,PID001,20251106_124958,2025-11-06 12:49:58,enem_blocks_PID01_20251106_124958.csv,/home/thiago/Documents/fnirs/simple/sessions/Sessions 05-11-25/PID001/enem_blocks_PID01_20251106_124958.csv,A1,Abstract,1,1,AbstractFirst,2,2022_CH_71,2022,CH,71,abstract,508.694435,508.710544,540.978507,553.459335,633.017957,79.55865849999827,79.55864,A,ANS_A,1,0,[],ITI duration: 3.15s,2
PID001,PID001,20251106_124958,2025-11-06 12:49:58,enem_blocks_PID01_20251106_124958.csv,/home/thiago/Documents/fnirs/simple/sessions/Sessions 05-11-25/PID001/enem_blocks_PID01_20251106_124958.csv,A1,Abstract,1,1,AbstractFirst,3,2022_CH_47,2022,CH,47,abstract,637.4583,637.491758,646.283089,755.353059,814.222746,58.8697233999992,58.86971,C,ANS_C,1,0,[],ITI duration: 3.92s,3
PID001,PID001,20251106_124958,2025-11-06 12:49:58,enem_blocks_PID01_20251106_124958.csv,/home/thiago/Documents/fnirs/simple/sessions/Sessions 05-11-25/PID001/enem_blocks_PID01_20251106_124958.csv,A2,Abstract,2,2,AbstractFirst,1,2019_CH_65,2019,CH,65,abstract,821.613601,821.63969,824.184014,894.456655,923.238447,28.781878000008874,28.781864,C,ANS_C,1,0,[],ITI duration: 4.03s,4
PID001,PID001,20251106_124958,2025-11-06 12:49:58,enem_blocks_PID01_20251106_124958.csv,/home/thiago/Documents/fnirs/simple/sessions/Sessions 05-11-25/PID001/enem_blocks_PID01_20251106_124958.csv,A2,Abstract,2,2,AbstractFirst,2,2020_LC_31,2020,LC,31,abstract,928.078901,928.13484,935.371683,948.800926,1054.801112,106.00028429999657,106.000265,C,ANS_C,1,0,[],ITI duration: 4.33s,5
PID001,PID001,20251106_124958,2025-11-06 12:49:58,enem_blocks_PID01_20251106_124958.csv,/home/thiago/Documents/fnirs/simple/sessions/Sessions 05-11-25/PID001/enem_blocks_PID01_20251106_124958.csv,A2,Abstract,2,2,AbstractFirst,3,2020_CH_77,2020,CH,77,abstract,1059.20818,1059.231399,1061.149899,1061.949514,1157.301826,95.35238160000881,95.352368,D,ANS_D,1,0,[],ITI duration: 3.88s,6
PID001,PID001,20251106_124958,2025-11-06 12:49:58,enem_blocks_PID01_20251106_124958.csv,/home/thiago/Documents/fnirs/simple/sessions/Sessions 05-11-25/PID001/enem_blocks_PID01_20251106_124958.csv,A3,Abstract,3,3,AbstractFirst,1,2021_CH_51,2021,CH,51,abstract,1245.0289,1245.060439,1278.478869,1284.733687,1295.845342,11.111727499999688,11.111712,B,ANS_B,1,0,[],ITI duration: 4.40s,7
PID001,PID001,20251106_124958,2025-11-06 12:49:58,enem_blocks_PID01_20251106_124958.csv,/home/thiago/Documents/fnirs/simple/sessions/Sessions 05-11-25/PID001/enem_blocks_PID01_20251106_124958.csv,A3,Abstract,3,3,AbstractFirst,2,2021_CH_57,2021,CH,57,abstract,1300.754147,1300.780938,1302.705005,1347.468655,1381.716918,34.24832769999921,34.248311,B,ANS_B,1,0,[],ITI duration: 4.38s,8
PID001,PID001,20251106_124958,2025-11-06 12:49:58,enem_blocks_PID01_20251106_124958.csv,/home/thiago/Documents/fnirs/simple/sessions/Sessions 05-11-25/PID001/enem_blocks_PID01_20251106_124958.csv,A3,Abstract,3,3,AbstractFirst,3,2021_CH_86,2021,CH,86,abstract,1386.890428,1386.912722,1443.500722,1459.571741,1488.399263,28.82758380001178,28.827566,A,ANS_A,1,0,[],ITI duration: 4.66s,9
PID001,PID001,20251106_124958,2025-11-06 12:49:58,enem_blocks_PID01_20251106_124958.csv,/home/thiago/Documents/fnirs/simple/sessions/Sessions 05-11-25/PID001/enem_blocks_PID01_20251106_124958.csv,A4,Abstract,4,4,AbstractFirst,1,2021_CH_65,2021,CH,65,abstract,1667.278293,1667.298686,1704.743953,1712.833013,1770.003752,57.17082899999514,57.170813,B,ANS_B,1,0,[],ITI duration: 4.78s,10
PID001,PID001,20251106_124958,2025-11-06 12:49:58,enem_blocks_PID01_20251106_124958.csv,/home/thiago/Documents/fnirs/simple/sessions/Sessions 05-11-25/PID001/enem_blocks_PID01_20251106_124958.csv,A4,Abstract,4,4,AbstractFirst,2,2019_CH_64,2019,CH,64,abstract,1774.528859,1774.569213,1778.652996,1844.526489,1867.057296,22.530866200002492,22.530854,C,ANS_C,1,0,[],ITI duration: 3.99s,11
PID001,PID001,20251106_124958,2025-11-06 12:49:58,enem_blocks_PID01_20251106_124958.csv,/home/thiago/Documents/fnirs/simple/sessions/Sessions 05-11-25/PID001/enem_blocks_PID01_20251106_124958.csv,A4,Abstract,4,4,AbstractFirst,3,2020_CH_76,2020,CH,76,abstract,1870.678846,1870.716882,1903.678413,1925.434244,1974.455418,49.02123969999957,49.021226,B,ANS_B,1,0,[],ITI duration: 3.09s,12
PID001,PID001,20251106_124958,2025-11-06 12:49:58,enem_blocks_PID01_20251106_124958.csv,/home/thiago/Documents/fnirs/simple/sessions/Sessions 05-11-25/PID001/enem_blocks_PID01_20251106_124958.csv,A5,Abstract,5,5,AbstractFirst,1,2021_CH_83,2021,CH,83,abstract,2088.361813,2088.416583,2148.243842,2157.974701,2181.455205,23.480569099992863,23.480556,B,ANS_B,1,0,[],ITI duration: 3.57s,13
PID001,PID001,20251106_124958,2025-11-06 12:49:58,enem_blocks_PID01_20251106_124958.csv,/home/thiago/Documents/fnirs/simple/sessions/Sessions 05-11-25/PID001/enem_blocks_PID01_20251106_124958.csv,A5,Abstract,5,5,AbstractFirst,2,2019_CH_56,2019,CH,56,abstract,2185.279743,2185.317433,2187.448069,2189.61305,2314.335872,124.72287929999584,124.722866,D,ANS_D,1,0,[],ITI duration: 3.30s,14
PID001,PID001,20251106_124958,2025-11-06 12:49:58,enem_blocks_PID01_20251106_124958.csv,/home/thiago/Documents/fnirs/simple/sessions/Sessions 05-11-25/PID001/enem_blocks_PID01_20251106_124958.csv,A5,Abstract,5,5,AbstractFirst,3,2022_CH_60,2022,CH,60,abstract,2318.875812,2318.916963,2320.76269,2321.280959,2481.325299,160.04440450000402,160.044354,B,ANS_B,1,0,[],ITI duration: 4.02s,15
PID001,PID001,20251106_124958,2025-11-06 12:49:58,enem_blocks_PID01_20251106_124958.csv,/home/thiago/Documents/fnirs/simple/sessions/Sessions 05-11-25/PID001/enem_blocks_PID01_20251106_124958.csv,C1,Concrete,1,6,AbstractFirst,1,2017_CH_47,2017,CH,47,concrete,2511.077292,2511.112954,2541.790419,2551.554767,2607.804622,56.24992149999889,56.249909,D,ANS_D,1,0,[],ITI duration: 3.64s,16
PID001,PID001,20251106_124958,2025-11-06 12:49:58,enem_blocks_PID01_20251106_124958.csv,/home/thiago/Documents/fnirs/simple/sessions/Sessions 05-11-25/PID001/enem_blocks_PID01_20251106_124958.csv,C1,Concrete,1,6,AbstractFirst,2,2020_CH_70,2020,CH,70,concrete,2611.528528,2611.543106,2640.596802,2650.2826,2720.071596,69.78903379999974,69.789021,E,ANS_E,1,0,[],ITI duration: 3.20s,17
PID001,PID001,20251106_124958,2025-11-06 12:49:58,enem_blocks_PID01_20251106_124958.csv,/home/thiago/Documents/fnirs/simple/sessions/Sessions 05-11-25/PID001/enem_blocks_PID01_20251106_124958.csv,C1,Concrete,1,6,AbstractFirst,3,2018_LC_44,2018,LC,44,concrete,2725.494714,2725.521144,2727.930391,2729.473817,2817.321223,87.8474467000051,87.847436,E,ANS_E,1,0,[],ITI duration: 4.91s,18
PID001,PID001,20251106_124958,2025-11-06 12:49:58,enem_blocks_PID01_20251106_124958.csv,/home/thiago/Documents/fnirs/simple/sessions/Sessions 05-11-25/PID001/enem_blocks_PID01_20251106_124958.csv,C2,Concrete,2,7,AbstractFirst,1,2020_CH_82,2020,CH,82,concrete,2932.17712,2932.203016,2961.159183,2985.213821,3009.492071,24.278294300005655,24.278281,E,ANS_E,1,0,[],ITI duration: 3.02s,19
PID001,PID001,20251106_124958,2025-11-06 12:49:58,enem_blocks_PID01_20251106_124958.csv,/home/thiago/Documents/fnirs/simple/sessions/Sessions 05-11-25/PID001/enem_blocks_PID01_20251106_124958.csv,C2,Concrete,2,7,AbstractFirst,2,2017_CH_75,2017,CH,75,concrete,3014.964429,3014.981564,3017.946372,3018.455557,3134.570382,116.11486630000581,116.114854,A,ANS_A,1,0,[],ITI duration: 4.96s,20
PID001,PID001,20251106_124958,2025-11-06 12:49:58,enem_blocks_PID01_20251106_124958.csv,/home/thiago/Documents/fnirs/simple/sessions/Sessions 05-11-25/PID001/enem_blocks_PID01_20251106_124958.csv,C2,Concrete,2,7,AbstractFirst,3,2017_CH_68,2017,CH,68,concrete,3139.244589,3139.255931,3140.962193,3141.425511,3209.777087,68.35163509999984,68.351625,C,ANS_C,1,0,[],ITI duration: 4.15s,21
PID001,PID001,20251106_124958,2025-11-06 12:49:58,enem_blocks_PID01_20251106_124958.csv,/home/thiago/Documents/fnirs/simple/sessions/Sessions 05-11-25/PID001/enem_blocks_PID01_20251106_124958.csv,C3,Concrete,3,8,AbstractFirst,1,2020_CH_56,2020,CH,56,concrete,3354.194068,3354.207071,3355.977734,3356.472549,3431.941555,75.46914699999616,75.469137,D,ANS_D,1,0,[],ITI duration: 3.61s,22
PID001,PID001,20251106_124958,2025-11-06 12:49:58,enem_blocks_PID01_20251106_124958.csv,/home/thiago/Documents/fnirs/simple/sessions/Sessions 05-11-25/PID001/enem_blocks_PID01_20251106_124958.csv,C3,Concrete,3,8,AbstractFirst,2,2021_CH_76,2021,CH,76,concrete,3436.91388,3436.93357,3438.999679,3439.492961,3520.393184,80.90036299999338,80.900353,C,ANS_C,1,0,[],ITI duration: 4.46s,23
PID001,PID001,20251106_124958,2025-11-06 12:49:58,enem_blocks_PID01_20251106_124958.csv,/home/thiago/Documents/fnirs/simple/sessions/Sessions 05-11-25/PID001/enem_blocks_PID01_20251106_124958.csv,C3,Concrete,3,8,AbstractFirst,3,2021_LC_26,2021,LC,26,concrete,3525.766839,3525.802996,3527.886606,3534.271791,3683.050604,148.77885319999768,148.778838,E,ANS_E,1,0,[],ITI duration: 4.86s,24
PID001,PID001,20251106_124958,2025-11-06 12:49:58,enem_blocks_PID01_20251106_124958.csv,/home/thiago/Documents/fnirs/simple/sessions/Sessions 05-11-25/PID001/enem_blocks_PID01_20251106_124958.csv,C4,Concrete,4,9,AbstractFirst,1,2020_CH_59,2020,CH,59,concrete,3778.343623,3778.356946,3779.794879,3780.25648,3872.772277,92.51583399999072,92.515818,C,ANS_C,1,0,[],ITI duration: 4.85s,25
PID001,PID001,20251106_124958,2025-11-06 12:49:58,enem_blocks_PID01_20251106_124958.csv,/home/thiago/Documents/fnirs/simple/sessions/Sessions 05-11-25/PID001/enem_blocks_PID01_20251106_124958.csv,C4,Concrete,4,9,AbstractFirst,2,2020_CH_84,2020,CH,84,concrete,3877.66134,3877.670898,3879.945594,3880.40575,3945.027225,64.62151720000838,64.621505,E,ANS_E,1,0,[],ITI duration: 4.37s,26
PID001,PID001,20251106_124958,2025-11-06 12:49:58,enem_blocks_PID01_20251106_124958.csv,/home/thiago/Documents/fnirs/simple/sessions/Sessions 05-11-25/PID001/enem_blocks_PID01_20251106_124958.csv,C4,Concrete,4,9,AbstractFirst,3,2020_CH_78,2020,CH,78,concrete,3948.617476,3948.628644,3950.002095,3950.479371,4010.54965,60.07031900000584,60.07031,B,ANS_B,1,0,[],ITI duration: 3.07s,27
PID001,PID001,20251106_124958,2025-11-06 12:49:58,enem_blocks_PID01_20251106_124958.csv,/home/thiago/Documents/fnirs/simple/sessions/Sessions 05-11-25/PID001/enem_blocks_PID01_20251106_124958.csv,C5,Concrete,5,10,AbstractFirst,1,2017_CH_69,2017,CH,69,concrete,4200.542567,4200.556613,4202.495299,4203.028254,4277.140507,74.11228929999925,74.112276,D,ANS_D,1,0,[],ITI duration: 3.88s,28
PID001,PID001,20251106_124958,2025-11-06 12:49:58,enem_blocks_PID01_20251106_124958.csv,/home/thiago/Documents/fnirs/simple/sessions/Sessions 05-11-25/PID001/enem_blocks_PID01_20251106_124958.csv,C5,Concrete,5,10,AbstractFirst,2,2018_CH_77,2018,CH,77,concrete,4281.89698,4281.910299,4283.265635,4283.662905,4330.065987,46.403123800002504,46.403115,A,ANS_A,1,0,[],ITI duration: 4.24s,29
PID001,PID001,20251106_124958,2025-11-06 12:49:58,enem_blocks_PID01_20251106_124958.csv,/home/thiago/Documents/fnirs/simple/sessions/Sessions 05-11-25/PID001/enem_blocks_PID01_20251106_124958.csv,C5,Concrete,5,10,AbstractFirst,3,2021_CH_46,2021,CH,46,concrete,4334.721934,4334.736551,4336.140874,4336.618881,4399.237486,62.61864789998799,62.618635,A,ANS_A,1,0,[],ITI duration: 4.13s,30
PID002,PID002,20251106_162601,2025-11-06 16:26:01,enem_blocks_PID002_20251106_162601.csv,/home/thiago/Documents/fnirs/simple/sessions/Sessions 05-11-25/PID002/enem_blocks_PID002_20251106_162601.csv,C1,Concrete,1,1,ConcreteFirst,1,2018_CH_77,2018,CH,77,concrete,236.614603,236.635434,254.181098,258.938196,294.549015,35.61085000000003,35.610828,C,ANS_C,1,0,[],ITI duration: 3.11s,1
PID002,PID002,20251106_162601,2025-11-06 16:26:01,enem_blocks_PID002_20251106_162601.csv,/home/thiago/Documents/fnirs/simple/sessions/Sessions 05-11-25/PID002/enem_blocks_PID002_20251106_162601.csv,C1,Concrete,1,1,ConcreteFirst,2,2021_CH_76,2021,CH,76,concrete,298.970101,298.998132,344.7875,356.473632,444.256159,87.78255910000007,87.782551,A,ANS_A,1,0,[],ITI duration: 3.89s,2
PID002,PID002,20251106_162601,2025-11-06 16:26:01,enem_blocks_PID002_20251106_162601.csv,/home/thiago/Documents/fnirs/simple/sessions/Sessions 05-11-25/PID002/enem_blocks_PID002_20251106_162601.csv,C1,Concrete,1,1,ConcreteFirst,3,2020_CH_78,2020,CH,78,concrete,448.898825,448.909113,458.852572,464.595008,522.69471,58.099734100000205,58.099707,C,ANS_C,1,0,[],ITI duration: 4.13s,3
PID002,PID002,20251106_162601,2025-11-06 16:26:01,enem_blocks_PID002_20251106_162601.csv,/home/thiago/Documents/fnirs/simple/sessions/Sessions 05-11-25/PID002/enem_blocks_PID002_20251106_162601.csv,C2,Concrete,2,2,ConcreteFirst,1,2018_LC_44,2018,LC,44,concrete,660.19761,660.252205,697.363805,700.269129,742.17728,41.90818180000042,41.908169,D,ANS_D,1,0,[],ITI duration: 4.59s,4
PID002,PID002,20251106_162601,2025-11-06 16:26:01,enem_blocks_PID002_20251106_162601.csv,/home/thiago/Documents/fnirs/simple/sessions/Sessions 05-11-25/PID002/enem_blocks_PID002_20251106_162601.csv,C2,Concrete,2,2,ConcreteFirst,2,2020_CH_70,2020,CH,70,concrete,747.601931,747.617283,779.835341,784.719389,842.52793,57.808573199999955,57.808552,E,ANS_E,1,0,[],ITI duration: 4.91s,5
PID002,PID002,20251106_162601,2025-11-06 16:26:01,enem_blocks_PID002_20251106_162601.csv,/home/thiago/Documents/fnirs/simple/sessions/Sessions 05-11-25/PID002/enem_blocks_PID002_20251106_162601.csv,C2,Concrete,2,2,ConcreteFirst,3,2021_CH_46,2021,CH,46,concrete,846.550999,846.563047,861.037795,865.109555,950.944717,85.83519879999949,85.835176,B,ANS_B,1,0,[],ITI duration: 3.50s,6
PID002,PID002,20251106_162601,2025-11-06 16:26:01,enem_blocks_PID002_20251106_162601.csv,/home/thiago/Documents/fnirs/simple/sessions/Sessions 05-11-25/PID002/enem_blocks_PID002_20251106_162601.csv,C3,Concrete,3,3,ConcreteFirst,1,2021_LC_26,2021,LC,26,concrete,1081.048519,1081.078552,1143.77409,1150.911748,1268.460309,117.54859199999919,117.548572,E,ANS_E,1,0,[],ITI duration: 4.36s,7
PID002,PID002,20251106_162601,2025-11-06 16:26:01,enem_blocks_PID002_20251106_162601.csv,/home/thiago/Documents/fnirs/simple/sessions/Sessions 05-11-25/PID002/enem_blocks_PID002_20251106_162601.csv,C3,Concrete,3,3,ConcreteFirst,2,2017_CH_47,2017,CH,47,concrete,1273.200361,1273.272791,1289.199441,1293.917086,1319.70241,25.78537469999901,25.785367,D,ANS_D,1,0,[],ITI duration: 4.22s,8
PID002,PID002,20251106_162601,2025-11-06 16:26:01,enem_blocks_PID002_20251106_162601.csv,/home/thiago/Documents/fnirs/simple/sessions/Sessions 05-11-25/PID002/enem_blocks_PID002_20251106_162601.csv,C3,Concrete,3,3,ConcreteFirst,3,2020_CH_59,2020,CH,59,concrete,1323.52706,1323.545867,1347.758431,1351.847249,1388.659063,36.81184799999937,36.811835,C,ANS_C,1,0,[],ITI duration: 3.31s,9
PID002,PID002,20251106_162601,2025-11-06 16:26:01,enem_blocks_PID002_20251106_162601.csv,/home/thiago/Documents/fnirs/simple/sessions/Sessions 05-11-25/PID002/enem_blocks_PID002_20251106_162601.csv,C4,Concrete,4,4,ConcreteFirst,1,2017_CH_75,2017,CH,75,concrete,1503.283396,1503.359638,1534.628126,1536.441715,1592.994012,56.55233419999968,56.552314,E,ANS_E,1,0,[],ITI duration: 4.51s,10
PID002,PID002,20251106_162601,2025-11-06 16:26:01,enem_blocks_PID002_20251106_162601.csv,/home/thiago/Documents/fnirs/simple/sessions/Sessions 05-11-25/PID002/enem_blocks_PID002_20251106_162601.csv,C4,Concrete,4,4,ConcreteFirst,2,2020_CH_84,2020,CH,84,concrete,1596.785919,1596.795871,1619.735053,1625.153197,1676.41375,51.260588400000415,51.260567,E,ANS_E,1,0,[],ITI duration: 3.28s,11
PID002,PID002,20251106_162601,2025-11-06 16:26:01,enem_blocks_PID002_20251106_162601.csv,/home/thiago/Documents/fnirs/simple/sessions/Sessions 05-11-25/PID002/enem_blocks_PID002_20251106_162601.csv,C4,Concrete,4,4,ConcreteFirst,3,2020_CH_82,2020,CH,82,concrete,1680.570263,1680.58828,1723.220491,1727.508301,1742.303168,14.794899499998792,14.794876,A,ANS_A,1,0,[],ITI duration: 3.64s,12
PID002,PID002,20251106_162601,2025-11-06 16:26:01,enem_blocks_PID002_20251106_162601.csv,/home/thiago/Documents/fnirs/simple/sessions/Sessions 05-11-25/PID002/enem_blocks_PID002_20251106_162601.csv,C5,Concrete,5,5,ConcreteFirst,1,2017_CH_68,2017,CH,68,concrete,1925.165709,1925.175204,1941.813009,1946.024476,2040.041395,94.0169492999994,94.016931,E,ANS_E,1,0,[],ITI duration: 4.67s,13
PID002,PID002,20251106_162601,2025-11-06 16:26:01,enem_blocks_PID002_20251106_162601.csv,/home/thiago/Documents/fnirs/simple/sessions/Sessions 05-11-25/PID002/enem_blocks_PID002_20251106_162601.csv,C5,Concrete,5,5,ConcreteFirst,2,2020_CH_56,2020,CH,56,concrete,2043.84757,2043.855452,2051.334795,2055.455945,2074.7856,19.32968720000099,19.329663,D,ANS_D,1,0,[],ITI duration: 3.28s,14
PID002,PID002,20251106_162601,2025-11-06 16:26:01,enem_blocks_PID002_20251106_162601.csv,/home/thiago/Documents/fnirs/simple/sessions/Sessions 05-11-25/PID002/enem_blocks_PID002_20251106_162601.csv,C5,Concrete,5,5,ConcreteFirst,3,2017_CH_69,2017,CH,69,concrete,2079.842483,2079.858262,2101.758402,2116.83081,2173.768616,56.937836700000844,56.937818,D,ANS_D,1,0,[],ITI duration: 4.55s,15
PID002,PID002,20251106_162601,2025-11-06 16:26:01,enem_blocks_PID002_20251106_162601.csv,/home/thiago/Documents/fnirs/simple/sessions/Sessions 05-11-25/PID002/enem_blocks_PID002_20251106_162601.csv,A1,Abstract,1,6,ConcreteFirst,1,2019_CH_56,2019,CH,56,abstract,2348.41641,2348.434359,2372.618459,2378.188092,2449.476366,71.28830639999978,71.288295,B,ANS_B,1,0,[],ITI duration: 3.10s,16
PID002,PID002,20251106_162601,2025-11-06 16:26:01,enem_blocks_PID002_20251106_162601.csv,/home/thiago/Documents/fnirs/simple/sessions/Sessions 05-11-25/PID002/enem_blocks_PID002_20251106_162601.csv,A1,Abstract,1,6,ConcreteFirst,2,2021_CH_65,2021,CH,65,abstract,2454.316361,2454.332249,2479.881627,2483.107927,2507.233679,24.125790100000813,24.125767,A,ANS_A,1,0,[],ITI duration: 4.32s,17
PID002,PID002,20251106_162601,2025-11-06 16:26:01,enem_blocks_PID002_20251106_162601.csv,/home/thiago/Documents/fnirs/simple/sessions/Sessions 05-11-25/PID002/enem_blocks_PID002_20251106_162601.csv,A1,Abstract,1,6,ConcreteFirst,3,2020_CH_77,2020,CH,77,abstract,2510.991545,2511.009058,2546.857205,2552.849294,2604.701778,51.8525152000002,51.852497,A,ANS_A,1,0,[],ITI duration: 3.23s,18
PID002,PID002,20251106_162601,2025-11-06 16:26:01,enem_blocks_PID002_20251106_162601.csv,/home/thiago/Documents/fnirs/simple/sessions/Sessions 05-11-25/PID002/enem_blocks_PID002_20251106_162601.csv,A2,Abstract,2,7,ConcreteFirst,1,2021_CH_57,2021,CH,57,abstract,2772.999492,2773.014943,2790.815992,2794.626543,2855.39528,60.76876900000025,60.768756,B,ANS_B,1,0,[],ITI duration: 4.73s,19
PID002,PID002,20251106_162601,2025-11-06 16:26:01,enem_blocks_PID002_20251106_162601.csv,/home/thiago/Documents/fnirs/simple/sessions/Sessions 05-11-25/PID002/enem_blocks_PID002_20251106_162601.csv,A2,Abstract,2,7,ConcreteFirst,2,2020_CH_76,2020,CH,76,abstract,2859.551766,2859.565067,2888.43161,2896.738695,3006.105358,109.36669970000003,109.366689,B,ANS_B,1,0,[],ITI duration: 3.64s,20
PID002,PID002,20251106_162601,2025-11-06 16:26:01,enem_blocks_PID002_20251106_162601.csv,/home/thiago/Documents/fnirs/simple/sessions/Sessions 05-11-25/PID002/enem_blocks_PID002_20251106_162601.csv,A2,Abstract,2,7,ConcreteFirst,3,2021_CH_86,2021,CH,86,abstract,3011.197962,3011.207617,3043.596664,3049.965041,3104.37436,54.40935849999914,54.409342,A,ANS_A,1,0,[],ITI duration: 4.57s,21
PID002,PID002,20251106_162601,2025-11-06 16:26:01,enem_blocks_PID002_20251106_162601.csv,/home/thiago/Documents/fnirs/simple/sessions/Sessions 05-11-25/PID002/enem_blocks_PID002_20251106_162601.csv,A3,Abstract,3,8,ConcreteFirst,1,2020_LC_31,2020,LC,31,abstract,3198.633214,3198.650038,3242.226967,3250.370905,3298.060492,47.689632900001016,47.689605,E,ANS_E,1,0,[],ITI duration: 4.63s,22
PID002,PID002,20251106_162601,2025-11-06 16:26:01,enem_blocks_PID002_20251106_162601.csv,/home/thiago/Documents/fnirs/simple/sessions/Sessions 05-11-25/PID002/enem_blocks_PID002_20251106_162601.csv,A3,Abstract,3,8,ConcreteFirst,2,2022_CH_51,2022,CH,51,abstract,3303.365652,3303.381227,3329.5495,3336.741079,3381.413869,44.67283429999952,44.672826,E,ANS_E,1,0,[],ITI duration: 4.78s,23
PID002,PID002,20251106_162601,2025-11-06 16:26:01,enem_blocks_PID002_20251106_162601.csv,/home/thiago/Documents/fnirs/simple/sessions/Sessions 05-11-25/PID002/enem_blocks_PID002_20251106_162601.csv,A3,Abstract,3,8,ConcreteFirst,3,2022_CH_47,2022,CH,47,abstract,3385.603495,3385.617866,3425.63587,3429.491251,3503.477199,73.98599800000011,73.985988,E,ANS_E,1,0,[],ITI duration: 3.67s,24
PID002,PID002,20251106_162601,2025-11-06 16:26:01,enem_blocks_PID002_20251106_162601.csv,/home/thiago/Documents/fnirs/simple/sessions/Sessions 05-11-25/PID002/enem_blocks_PID002_20251106_162601.csv,A4,Abstract,4,9,ConcreteFirst,1,2019_CH_64,2019,CH,64,abstract,3620.067086,3620.08807,3650.250729,3656.500521,3717.661803,61.16131469999891,61.161294,A,ANS_A,1,0,[],ITI duration: 3.80s,25
PID002,PID002,20251106_162601,2025-11-06 16:26:01,enem_blocks_PID002_20251106_162601.csv,/home/thiago/Documents/fnirs/simple/sessions/Sessions 05-11-25/PID002/enem_blocks_PID002_20251106_162601.csv,A4,Abstract,4,9,ConcreteFirst,2,2022_CH_71,2022,CH,71,abstract,3721.633891,3721.644178,3738.733301,3745.690757,3802.330263,56.639538400000674,56.639516,A,ANS_A,1,0,[],ITI duration: 3.46s,26
PID002,PID002,20251106_162601,2025-11-06 16:26:01,enem_blocks_PID002_20251106_162601.csv,/home/thiago/Documents/fnirs/simple/sessions/Sessions 05-11-25/PID002/enem_blocks_PID002_20251106_162601.csv,A4,Abstract,4,9,ConcreteFirst,3,2021_CH_51,2021,CH,51,abstract,3806.353647,3806.390581,3827.975339,3831.959973,3882.451335,50.491396699999314,50.491377,A,ANS_A,1,0,[],ITI duration: 3.50s,27
PID002,PID002,20251106_162601,2025-11-06 16:26:01,enem_blocks_PID002_20251106_162601.csv,/home/thiago/Documents/fnirs/simple/sessions/Sessions 05-11-25/PID002/enem_blocks_PID002_20251106_162601.csv,A5,Abstract,5,10,ConcreteFirst,1,2022_CH_60,2022,CH,60,abstract,4043.268005,4043.360811,4067.881031,4073.075084,4121.464916,48.389865799999825,48.389837,B,ANS_B,1,0,[],ITI duration: 4.00s,28
PID002,PID002,20251106_162601,2025-11-06 16:26:01,enem_blocks_PID002_20251106_162601.csv,/home/thiago/Documents/fnirs/simple/sessions/Sessions 05-11-25/PID002/enem_blocks_PID002_20251106_162601.csv,A5,Abstract,5,10,ConcreteFirst,2,2019_CH_65,2019,CH,65,abstract,4125.18855,4125.205097,4151.252877,4158.309485,4181.8714,23.561945400000695,23.561922,A,ANS_A,1,0,[],ITI duration: 3.21s,29
PID002,PID002,20251106_162601,2025-11-06 16:26:01,enem_blocks_PID002_20251106_162601.csv,/home/thiago/Documents/fnirs/simple/sessions/Sessions 05-11-25/PID002/enem_blocks_PID002_20251106_162601.csv,A5,Abstract,5,10,ConcreteFirst,3,2021_CH_83,2021,CH,83,abstract,4186.611267,4186.632524,4228.743082,4232.950452,4310.301067,77.35068110000066,77.350663,A,ANS_A,1,0,[],ITI duration: 4.22s,30
PID003,PID003,20251111_140525,2025-11-11 14:05:25,enem_blocks_PID003_20251111_140525.csv,/home/thiago/Documents/fnirs/simple/sessions/Sessions 11-11-25/PID003/enem_blocks_PID003_20251111_140525.csv,C1,Concrete,1,1,ConcreteFirst,1,2020_CH_56,2020,CH,56,concrete,261.104116,261.122108,272.403677,281.066931,288.007359,6.940466599946376,6.940457,D,ANS_D,1,2,"[11.155728, 8.505632]",ITI duration: 4.63s,1
PID003,PID003,20251111_140525,2025-11-11 14:05:25,enem_blocks_PID003_20251111_140525.csv,/home/thiago/Documents/fnirs/simple/sessions/Sessions 11-11-25/PID003/enem_blocks_PID003_20251111_140525.csv,C1,Concrete,1,1,ConcreteFirst,2,2017_CH_75,2017,CH,75,concrete,292.532636,292.563573,321.064011,325.09209,353.765911,28.67385760002071,28.673845,D,ANS_D,1,2,"[28.372867, 3.888939]",ITI duration: 4.00s,2
PID003,PID003,20251111_140525,2025-11-11 14:05:25,enem_blocks_PID003_20251111_140525.csv,/home/thiago/Documents/fnirs/simple/sessions/Sessions 11-11-25/PID003/enem_blocks_PID003_20251111_140525.csv,C1,Concrete,1,1,ConcreteFirst,3,2020_CH_78,2020,CH,78,concrete,357.75577,357.766089,373.190205,378.71545,400.224714,21.509304700011853,21.509291,B,ANS_B,1,2,"[15.294812, 5.388216]",ITI duration: 3.47s,3
PID003,PID003,20251111_140525,2025-11-11 14:05:25,enem_blocks_PID003_20251111_140525.csv,/home/thiago/Documents/fnirs/simple/sessions/Sessions 11-11-25/PID003/enem_blocks_PID003_20251111_140525.csv,C2,Concrete,2,2,ConcreteFirst,1,2017_CH_47,2017,CH,47,concrete,681.954615,681.972446,707.455686,712.672566,735.621864,22.94933420000598,22.949319,D,ANS_D,1,2,"[25.355082, 5.071085]",ITI duration: 3.76s,4
PID003,PID003,20251111_140525,2025-11-11 14:05:25,enem_blocks_PID003_20251111_140525.csv,/home/thiago/Documents/fnirs/simple/sessions/Sessions 11-11-25/PID003/enem_blocks_PID003_20251111_140525.csv,C2,Concrete,2,2,ConcreteFirst,2,2017_CH_69,2017,CH,69,concrete,739.546433,739.562736,773.211803,783.200366,835.157198,51.95686819998082,51.956852,E,ANS_E,1,2,"[33.519501, 9.852057]",ITI duration: 3.41s,5
PID003,PID003,20251111_140525,2025-11-11 14:05:25,enem_blocks_PID003_20251111_140525.csv,/home/thiago/Documents/fnirs/simple/sessions/Sessions 11-11-25/PID003/enem_blocks_PID003_20251111_140525.csv,C2,Concrete,2,2,ConcreteFirst,3,2018_LC_44,2018,LC,44,concrete,838.996338,839.019313,895.638094,903.194169,957.653774,54.45964409998851,54.459635,E,ANS_E,1,2,"[56.494033, 7.423944]",ITI duration: 3.33s,6
PID003,PID003,20251111_140525,2025-11-11 14:05:25,enem_blocks_PID003_20251111_140525.csv,/home/thiago/Documents/fnirs/simple/sessions/Sessions 11-11-25/PID003/enem_blocks_PID003_20251111_140525.csv,C3,Concrete,3,3,ConcreteFirst,1,2021_LC_26,2021,LC,26,concrete,1104.603961,1104.635565,1175.496054,1185.030628,1273.270161,88.23957440000959,88.239559,D,ANS_D,1,2,"[70.733176, 9.388855]",ITI duration: 4.77s,7
PID003,PID003,20251111_140525,2025-11-11 14:05:25,enem_blocks_PID003_20251111_140525.csv,/home/thiago/Documents/fnirs/simple/sessions/Sessions 11-11-25/PID003/enem_blocks_PID003_20251111_140525.csv,C3,Concrete,3,3,ConcreteFirst,2,2020_CH_82,2020,CH,82,concrete,1278.394389,1278.411177,1312.323347,1317.650795,1343.876575,26.22582789999433,26.225815,A,ANS_A,1,2,"[33.786991, 5.19158]",ITI duration: 4.61s,8
PID003,PID003,20251111_140525,2025-11-11 14:05:25,enem_blocks_PID003_20251111_140525.csv,/home/thiago/Documents/fnirs/simple/sessions/Sessions 11-11-25/PID003/enem_blocks_PID003_20251111_140525.csv,C3,Concrete,3,3,ConcreteFirst,3,2020_CH_84,2020,CH,84,concrete,1348.117014,1348.129292,1374.063427,1379.320107,1427.262702,47.94263469998259,47.942626,C,ANS_C,1,2,"[25.8097, 5.125638]",ITI duration: 3.72s,9
PID003,PID003,20251111_140525,2025-11-11 14:05:25,enem_blocks_PID003_20251111_140525.csv,/home/thiago/Documents/fnirs/simple/sessions/Sessions 11-11-25/PID003/enem_blocks_PID003_20251111_140525.csv,C4,Concrete,4,4,ConcreteFirst,1,2021_CH_76,2021,CH,76,concrete,1526.340076,1526.360659,1561.737574,1568.858068,1623.832807,54.97477540001273,54.974764,B,ANS_B,1,2,"[35.248628, 6.987943]",ITI duration: 4.62s,10
PID003,PID003,20251111_140525,2025-11-11 14:05:25,enem_blocks_PID003_20251111_140525.csv,/home/thiago/Documents/fnirs/simple/sessions/Sessions 11-11-25/PID003/enem_blocks_PID003_20251111_140525.csv,C4,Concrete,4,4,ConcreteFirst,2,2020_CH_70,2020,CH,70,concrete,1627.588531,1627.602817,1651.092209,1657.707792,1722.03315,64.32539300003555,64.325379,A,ANS_A,1,2,"[23.360039, 6.48469]",ITI duration: 3.23s,11
PID003,PID003,20251111_140525,2025-11-11 14:05:25,enem_blocks_PID003_20251111_140525.csv,/home/thiago/Documents/fnirs/simple/sessions/Sessions 11-11-25/PID003/enem_blocks_PID003_20251111_140525.csv,C4,Concrete,4,4,ConcreteFirst,3,2017_CH_68,2017,CH,68,concrete,1725.70749,1725.718792,1750.138943,1757.330129,1805.387068,48.056975699961185,48.056967,A,ANS_A,1,2,"[24.294859, 7.055378]",ITI duration: 3.15s,12
PID003,PID003,20251111_140525,2025-11-11 14:05:25,enem_blocks_PID003_20251111_140525.csv,/home/thiago/Documents/fnirs/simple/sessions/Sessions 11-11-25/PID003/enem_blocks_PID003_20251111_140525.csv,C5,Concrete,5,5,ConcreteFirst,1,2020_CH_59,2020,CH,59,concrete,1948.022917,1948.041141,1984.088109,1989.844726,2018.819409,28.97472169995308,28.974711,C,ANS_C,1,2,"[35.919615, 5.620267]",ITI duration: 4.72s,13
PID003,PID003,20251111_140525,2025-11-11 14:05:25,enem_blocks_PID003_20251111_140525.csv,/home/thiago/Documents/fnirs/simple/sessions/Sessions 11-11-25/PID003/enem_blocks_PID003_20251111_140525.csv,C5,Concrete,5,5,ConcreteFirst,2,2018_CH_77,2018,CH,77,concrete,2023.577466,2023.590488,2047.226865,2051.040419,2098.740652,47.70026989997132,47.700256,A,ANS_A,1,2,"[23.508948, 3.672736]",ITI duration: 4.24s,14
PID003,PID003,20251111_140525,2025-11-11 14:05:25,enem_blocks_PID003_20251111_140525.csv,/home/thiago/Documents/fnirs/simple/sessions/Sessions 11-11-25/PID003/enem_blocks_PID003_20251111_140525.csv,C5,Concrete,5,5,ConcreteFirst,3,2021_CH_46,2021,CH,46,concrete,2102.483439,2102.497515,2121.428797,2125.904833,2183.677383,57.77258869999787,57.772575,A,ANS_A,1,2,"[18.807194, 4.34116]",ITI duration: 3.23s,15
PID003,PID003,20251111_140525,2025-11-11 14:05:25,enem_blocks_PID003_20251111_140525.csv,/home/thiago/Documents/fnirs/simple/sessions/Sessions 11-11-25/PID003/enem_blocks_PID003_20251111_140525.csv,A1,Abstract,1,6,ConcreteFirst,1,2019_CH_65,2019,CH,65,abstract,2369.273347,2369.287975,2395.921331,2402.294239,2419.675432,17.38122849998763,17.381212,A,ANS_A,1,2,"[26.506946, 6.238316]",ITI duration: 3.44s,16
PID003,PID003,20251111_140525,2025-11-11 14:05:25,enem_blocks_PID003_20251111_140525.csv,/home/thiago/Documents/fnirs/simple/sessions/Sessions 11-11-25/PID003/enem_blocks_PID003_20251111_140525.csv,A1,Abstract,1,6,ConcreteFirst,2,2022_CH_71,2022,CH,71,abstract,2425.08155,2425.097904,2445.098557,2455.941564,2507.878557,51.93703109998023,51.937018,A,ANS_A,1,2,"[19.87385, 10.70275]",ITI duration: 4.89s,17
PID003,PID003,20251111_140525,2025-11-11 14:05:25,enem_blocks_PID003_20251111_140525.csv,/home/thiago/Documents/fnirs/simple/sessions/Sessions 11-11-25/PID003/enem_blocks_PID003_20251111_140525.csv,A1,Abstract,1,6,ConcreteFirst,3,2022_CH_51,2022,CH,51,abstract,2512.235361,2512.255646,2562.395188,2566.783206,2608.527177,41.7440109999734,41.744002,E,ANS_E,1,2,"[50.014178, 4.255961]",ITI duration: 3.84s,18
PID003,PID003,20251111_140525,2025-11-11 14:05:25,enem_blocks_PID003_20251111_140525.csv,/home/thiago/Documents/fnirs/simple/sessions/Sessions 11-11-25/PID003/enem_blocks_PID003_20251111_140525.csv,A2,Abstract,2,7,ConcreteFirst,1,2021_CH_83,2021,CH,83,abstract,2792.241508,2792.264839,2838.186425,2842.512136,2877.069464,34.55737519997638,34.557363,A,ANS_A,1,2,"[45.794339, 4.188641]",ITI duration: 4.52s,19
PID003,PID003,20251111_140525,2025-11-11 14:05:25,enem_blocks_PID003_20251111_140525.csv,/home/thiago/Documents/fnirs/simple/sessions/Sessions 11-11-25/PID003/enem_blocks_PID003_20251111_140525.csv,A2,Abstract,2,7,ConcreteFirst,2,2021_CH_57,2021,CH,57,abstract,2880.926579,2880.936256,2900.279662,2903.785023,2943.492095,39.707132899959106,39.707121,D,ANS_D,1,2,"[19.215322, 3.368953]",ITI duration: 3.34s,20
PID003,PID003,20251111_140525,2025-11-11 14:05:25,enem_blocks_PID003_20251111_140525.csv,/home/thiago/Documents/fnirs/simple/sessions/Sessions 11-11-25/PID003/enem_blocks_PID003_20251111_140525.csv,A2,Abstract,2,7,ConcreteFirst,3,2020_CH_77,2020,CH,77,abstract,2947.033211,2947.042845,2981.533559,2992.721201,3049.609366,56.888204799965024,56.888197,B,ANS_B,1,2,"[34.360473, 11.050312]",ITI duration: 3.02s,21
PID003,PID003,20251111_140525,2025-11-11 14:05:25,enem_blocks_PID003_20251111_140525.csv,/home/thiago/Documents/fnirs/simple/sessions/Sessions 11-11-25/PID003/enem_blocks_PID003_20251111_140525.csv,A3,Abstract,3,8,ConcreteFirst,1,2022_CH_60,2022,CH,60,abstract,3213.723558,3213.742455,3242.974428,3249.814134,3265.493655,15.679570099979173,15.679556,B,ANS_B,1,2,"[29.105391, 6.703439]",ITI duration: 3.93s,22
PID003,PID003,20251111_140525,2025-11-11 14:05:25,enem_blocks_PID003_20251111_140525.csv,/home/thiago/Documents/fnirs/simple/sessions/Sessions 11-11-25/PID003/enem_blocks_PID003_20251111_140525.csv,A3,Abstract,3,8,ConcreteFirst,2,2021_CH_65,2021,CH,65,abstract,3269.466537,3269.476601,3314.993734,3319.369315,3377.974442,58.605165800021496,58.605152,A,ANS_A,1,2,"[45.390582, 4.239674]",ITI duration: 3.45s,23
PID003,PID003,20251111_140525,2025-11-11 14:05:25,enem_blocks_PID003_20251111_140525.csv,/home/thiago/Documents/fnirs/simple/sessions/Sessions 11-11-25/PID003/enem_blocks_PID003_20251111_140525.csv,A3,Abstract,3,8,ConcreteFirst,3,2022_CH_47,2022,CH,47,abstract,3382.531295,3382.547106,3428.810378,3433.413604,3495.823039,62.40947049995884,62.409456,C,ANS_C,1,2,"[46.135163, 4.47291]",ITI duration: 4.05s,24
PID003,PID003,20251111_140525,2025-11-11 14:05:25,enem_blocks_PID003_20251111_140525.csv,/home/thiago/Documents/fnirs/simple/sessions/Sessions 11-11-25/PID003/enem_blocks_PID003_20251111_140525.csv,A4,Abstract,4,9,ConcreteFirst,1,2021_CH_86,2021,CH,86,abstract,3634.95905,3634.968241,3668.892183,3675.094584,3693.207732,18.113190899952315,18.113177,A,ANS_A,1,2,"[33.79404, 6.069208]",ITI duration: 3.92s,25
PID003,PID003,20251111_140525,2025-11-11 14:05:25,enem_blocks_PID003_20251111_140525.csv,/home/thiago/Documents/fnirs/simple/sessions/Sessions 11-11-25/PID003/enem_blocks_PID003_20251111_140525.csv,A4,Abstract,4,9,ConcreteFirst,2,2021_CH_51,2021,CH,51,abstract,3697.298713,3697.312594,3726.181266,3730.634865,3770.49596,39.86113110004226,39.861119,C,ANS_C,1,2,"[28.740944, 4.321231]",ITI duration: 3.57s,26
PID003,PID003,20251111_140525,2025-11-11 14:05:25,enem_blocks_PID003_20251111_140525.csv,/home/thiago/Documents/fnirs/simple/sessions/Sessions 11-11-25/PID003/enem_blocks_PID003_20251111_140525.csv,A4,Abstract,4,9,ConcreteFirst,3,2019_CH_64,2019,CH,64,abstract,3774.986778,3775.001888,3810.085576,3814.991602,3827.822159,12.830611200013664,12.830598,C,ANS_C,1,2,"[34.954494, 4.770864]",ITI duration: 3.98s,27
PID003,PID003,20251111_140525,2025-11-11 14:05:25,enem_blocks_PID003_20251111_140525.csv,/home/thiago/Documents/fnirs/simple/sessions/Sessions 11-11-25/PID003/enem_blocks_PID003_20251111_140525.csv,A5,Abstract,5,10,ConcreteFirst,1,2019_CH_56,2019,CH,56,abstract,4056.609823,4056.624494,4085.055425,4093.261326,4141.838613,48.57732699997723,48.577316,E,ANS_E,1,2,"[28.305358, 8.073688]",ITI duration: 3.78s,28
PID003,PID003,20251111_140525,2025-11-11 14:05:25,enem_blocks_PID003_20251111_140525.csv,/home/thiago/Documents/fnirs/simple/sessions/Sessions 11-11-25/PID003/enem_blocks_PID003_20251111_140525.csv,A5,Abstract,5,10,ConcreteFirst,2,2020_CH_76,2020,CH,76,abstract,4147.196034,4147.2146,4175.544382,4182.884598,4249.32128,66.43677380000008,66.436765,E,ANS_E,1,2,"[28.202719, 7.203383]",ITI duration: 4.84s,29
PID003,PID003,20251111_140525,2025-11-11 14:05:25,enem_blocks_PID003_20251111_140525.csv,/home/thiago/Documents/fnirs/simple/sessions/Sessions 11-11-25/PID003/enem_blocks_PID003_20251111_140525.csv,A5,Abstract,5,10,ConcreteFirst,3,2020_LC_31,2020,LC,31,abstract,4253.379361,4253.397086,4311.188466,4318.2984,4339.839413,21.541048300045077,21.541036,C,ANS_C,1,2,"[57.664685, 6.973198]",ITI duration: 3.54s,30
PID004,PID004,20251111_154532,2025-11-11 15:45:32,enem_blocks_pid004_20251111_154532.csv,/home/thiago/Documents/fnirs/simple/sessions/Sessions 11-11-25/PID004/enem_blocks_pid004_20251111_154532.csv,C1,Concrete,1,1,ConcreteFirst,1,2017_CH_75,2017,CH,75,concrete,215.910385,215.939599,253.27452,256.432027,295.557111,39.12512320000678,39.125113,E,ANS_E,1,2,"[37.207285, 3.004714]",ITI duration: 4.86s,1
PID004,PID004,20251111_154532,2025-11-11 15:45:32,enem_blocks_pid004_20251111_154532.csv,/home/thiago/Documents/fnirs/simple/sessions/Sessions 11-11-25/PID004/enem_blocks_pid004_20251111_154532.csv,C1,Concrete,1,1,ConcreteFirst,2,2020_CH_59,2020,CH,59,concrete,299.280571,299.297438,331.748729,336.852372,403.255515,66.40317669999786,66.40316,E,ANS_E,1,2,"[32.320722, 4.967408]",ITI duration: 3.18s,2
PID004,PID004,20251111_154532,2025-11-11 15:45:32,enem_blocks_pid004_20251111_154532.csv,/home/thiago/Documents/fnirs/simple/sessions/Sessions 11-11-25/PID004/enem_blocks_pid004_20251111_154532.csv,C1,Concrete,1,1,ConcreteFirst,3,2017_CH_69,2017,CH,69,concrete,407.481267,407.492162,424.819215,432.255526,506.208276,73.9527906999574,73.952777,C,ANS_C,1,2,"[17.195211, 7.3005]",ITI duration: 3.70s,3
PID004,PID004,20251111_154532,2025-11-11 15:45:32,enem_blocks_pid004_20251111_154532.csv,/home/thiago/Documents/fnirs/simple/sessions/Sessions 11-11-25/PID004/enem_blocks_pid004_20251111_154532.csv,C2,Concrete,2,2,ConcreteFirst,1,2021_LC_26,2021,LC,26,concrete,636.52919,636.564894,709.584946,715.233377,771.815946,56.582606399955694,56.582592,D,ANS_D,1,2,"[72.893921, 5.506624]",ITI duration: 3.52s,4
PID004,PID004,20251111_154532,2025-11-11 15:45:32,enem_blocks_pid004_20251111_154532.csv,/home/thiago/Documents/fnirs/simple/sessions/Sessions 11-11-25/PID004/enem_blocks_pid004_20251111_154532.csv,C2,Concrete,2,2,ConcreteFirst,2,2021_CH_76,2021,CH,76,concrete,776.121555,776.136516,805.054188,812.291617,822.45749,10.165908799972385,10.165895,B,ANS_B,1,2,"[28.790836, 7.105036]",ITI duration: 3.78s,5
PID004,PID004,20251111_154532,2025-11-11 15:45:32,enem_blocks_pid004_20251111_154532.csv,/home/thiago/Documents/fnirs/simple/sessions/Sessions 11-11-25/PID004/enem_blocks_pid004_20251111_154532.csv,C2,Concrete,2,2,ConcreteFirst,3,2018_CH_77,2018,CH,77,concrete,826.014615,826.029982,846.696403,851.074372,876.849149,25.774817000026815,25.774803,A,ANS_A,1,2,"[20.54019, 4.239062]",ITI duration: 3.03s,6
PID004,PID004,20251111_154532,2025-11-11 15:45:32,enem_blocks_pid004_20251111_154532.csv,/home/thiago/Documents/fnirs/simple/sessions/Sessions 11-11-25/PID004/enem_blocks_pid004_20251111_154532.csv,C3,Concrete,3,3,ConcreteFirst,1,2020_CH_82,2020,CH,82,concrete,1057.977277,1057.995311,1088.377019,1093.108229,1109.780159,16.671999600017443,16.671983,A,ANS_A,1,2,"[30.253784, 4.586692]",ITI duration: 3.36s,7
PID004,PID004,20251111_154532,2025-11-11 15:45:32,enem_blocks_pid004_20251111_154532.csv,/home/thiago/Documents/fnirs/simple/sessions/Sessions 11-11-25/PID004/enem_blocks_pid004_20251111_154532.csv,C3,Concrete,3,3,ConcreteFirst,2,2018_LC_44,2018,LC,44,concrete,1113.587421,1113.610669,1157.100455,1160.305527,1229.759561,69.45407569996314,69.454062,D,ANS_D,1,2,"[43.361916, 3.070904]",ITI duration: 3.29s,8
PID004,PID004,20251111_154532,2025-11-11 15:45:32,enem_blocks_pid004_20251111_154532.csv,/home/thiago/Documents/fnirs/simple/sessions/Sessions 11-11-25/PID004/enem_blocks_pid004_20251111_154532.csv,C3,Concrete,3,3,ConcreteFirst,3,2020_CH_84,2020,CH,84,concrete,1234.101711,1234.110994,1272.845825,1278.383988,1313.547456,35.16350289998809,35.163489,D,ANS_D,1,2,"[38.609684, 5.406249]",ITI duration: 3.83s,9
PID004,PID004,20251111_154532,2025-11-11 15:45:32,enem_blocks_pid004_20251111_154532.csv,/home/thiago/Documents/fnirs/simple/sessions/Sessions 11-11-25/PID004/enem_blocks_pid004_20251111_154532.csv,C4,Concrete,4,4,ConcreteFirst,1,2020_CH_56,2020,CH,56,concrete,1480.345428,1480.353653,1492.163471,1506.684338,1571.057165,64.37286389997462,64.372851,D,ANS_D,1,2,"[11.682559, 14.387944]",ITI duration: 4.46s,10
PID004,PID004,20251111_154532,2025-11-11 15:45:32,enem_blocks_pid004_20251111_154532.csv,/home/thiago/Documents/fnirs/simple/sessions/Sessions 11-11-25/PID004/enem_blocks_pid004_20251111_154532.csv,C4,Concrete,4,4,ConcreteFirst,2,2021_CH_46,2021,CH,46,concrete,1575.031885,1575.050152,1596.413514,1600.555896,1640.129022,39.57317210000474,39.573162,B,ANS_B,1,2,"[21.235776, 4.005589]",ITI duration: 3.46s,11
PID004,PID004,20251111_154532,2025-11-11 15:45:32,enem_blocks_pid004_20251111_154532.csv,/home/thiago/Documents/fnirs/simple/sessions/Sessions 11-11-25/PID004/enem_blocks_pid004_20251111_154532.csv,C4,Concrete,4,4,ConcreteFirst,3,2020_CH_70,2020,CH,70,concrete,1644.07134,1644.086421,1686.430525,1691.490659,1738.897744,47.407120599993505,47.40711,D,ANS_D,1,2,"[42.218465, 4.924436]",ITI duration: 3.43s,12
PID004,PID004,20251111_154532,2025-11-11 15:45:32,enem_blocks_pid004_20251111_154532.csv,/home/thiago/Documents/fnirs/simple/sessions/Sessions 11-11-25/PID004/enem_blocks_pid004_20251111_154532.csv,C5,Concrete,5,5,ConcreteFirst,1,2017_CH_68,2017,CH,68,concrete,1900.696515,1900.710792,1925.524864,1930.535595,1985.126428,54.590869699954055,54.590856,A,ANS_A,1,2,"[24.689745, 4.875773]",ITI duration: 3.49s,13
PID004,PID004,20251111_154532,2025-11-11 15:45:32,enem_blocks_pid004_20251111_154532.csv,/home/thiago/Documents/fnirs/simple/sessions/Sessions 11-11-25/PID004/enem_blocks_pid004_20251111_154532.csv,C5,Concrete,5,5,ConcreteFirst,2,2017_CH_47,2017,CH,47,concrete,1989.365905,1989.378004,2021.012109,2025.525053,2039.999577,14.474560000002384,14.474546,D,ANS_D,1,2,"[31.507551, 4.374535]",ITI duration: 3.72s,14
PID004,PID004,20251111_154532,2025-11-11 15:45:32,enem_blocks_pid004_20251111_154532.csv,/home/thiago/Documents/fnirs/simple/sessions/Sessions 11-11-25/PID004/enem_blocks_pid004_20251111_154532.csv,C5,Concrete,5,5,ConcreteFirst,3,2020_CH_78,2020,CH,78,concrete,2044.090251,2044.096156,2054.542399,2059.232794,2107.657749,48.425014599983115,48.424995,D,ANS_D,1,2,"[10.318548, 4.554989]",ITI duration: 3.58s,15
PID004,PID004,20251111_154532,2025-11-11 15:45:32,enem_blocks_pid004_20251111_154532.csv,/home/thiago/Documents/fnirs/simple/sessions/Sessions 11-11-25/PID004/enem_blocks_pid004_20251111_154532.csv,A1,Abstract,1,6,ConcreteFirst,1,2020_CH_76,2020,CH,76,abstract,2322.264189,2322.280342,2355.896583,2364.916867,2415.692433,50.775607599993236,50.775594,E,ANS_E,1,2,"[33.486822, 8.885391]",ITI duration: 3.50s,16
PID004,PID004,20251111_154532,2025-11-11 15:45:32,enem_blocks_pid004_20251111_154532.csv,/home/thiago/Documents/fnirs/simple/sessions/Sessions 11-11-25/PID004/enem_blocks_pid004_20251111_154532.csv,A1,Abstract,1,6,ConcreteFirst,2,2021_CH_51,2021,CH,51,abstract,2420.415004,2420.430743,2444.112001,2450.089037,2488.795516,38.70657239999855,38.706559,A,ANS_A,1,2,"[23.554928, 5.841365]",ITI duration: 4.20s,17
PID004,PID004,20251111_154532,2025-11-11 15:45:32,enem_blocks_pid004_20251111_154532.csv,/home/thiago/Documents/fnirs/simple/sessions/Sessions 11-11-25/PID004/enem_blocks_pid004_20251111_154532.csv,A1,Abstract,1,6,ConcreteFirst,3,2021_CH_86,2021,CH,86,abstract,2494.137392,2494.14941,2524.518887,2531.0927,2573.165526,42.072878600039985,42.072869,A,ANS_A,1,2,"[30.240452, 6.438155]",ITI duration: 4.82s,18
PID004,PID004,20251111_154532,2025-11-11 15:45:32,enem_blocks_pid004_20251111_154532.csv,/home/thiago/Documents/fnirs/simple/sessions/Sessions 11-11-25/PID004/enem_blocks_pid004_20251111_154532.csv,A2,Abstract,2,7,ConcreteFirst,1,2022_CH_71,2022,CH,71,abstract,2744.297578,2744.315209,2778.060381,2784.403266,2824.943518,40.54029550001724,40.540282,A,ANS_A,1,2,"[33.61865, 6.206653]",ITI duration: 4.71s,19
PID004,PID004,20251111_154532,2025-11-11 15:45:32,enem_blocks_pid004_20251111_154532.csv,/home/thiago/Documents/fnirs/simple/sessions/Sessions 11-11-25/PID004/enem_blocks_pid004_20251111_154532.csv,A2,Abstract,2,7,ConcreteFirst,2,2021_CH_57,2021,CH,57,abstract,2829.917342,2829.931025,2874.909903,2878.537049,2914.812446,36.27543399995193,36.27542,B,ANS_B,1,2,"[44.854306, 3.492929]",ITI duration: 4.46s,20
PID004,PID004,20251111_154532,2025-11-11 15:45:32,enem_blocks_pid004_20251111_154532.csv,/home/thiago/Documents/fnirs/simple/sessions/Sessions 11-11-25/PID004/enem_blocks_pid004_20251111_154532.csv,A2,Abstract,2,7,ConcreteFirst,3,2021_CH_83,2021,CH,83,abstract,2918.618871,2918.643853,2985.164387,2990.252631,3026.078347,35.825752099975944,35.825737,A,ANS_A,1,2,"[66.392513, 4.953538]",ITI duration: 3.30s,21
PID004,PID004,20251111_154532,2025-11-11 15:45:32,enem_blocks_pid004_20251111_154532.csv,/home/thiago/Documents/fnirs/simple/sessions/Sessions 11-11-25/PID004/enem_blocks_pid004_20251111_154532.csv,A3,Abstract,3,8,ConcreteFirst,1,2019_CH_65,2019,CH,65,abstract,3168.480583,3168.49301,3197.94808,3204.986143,3240.360957,35.37485379999271,35.374843,A,ANS_A,1,2,"[29.325774, 6.903218]",ITI duration: 3.84s,22
PID004,PID004,20251111_154532,2025-11-11 15:45:32,enem_blocks_pid004_20251111_154532.csv,/home/thiago/Documents/fnirs/simple/sessions/Sessions 11-11-25/PID004/enem_blocks_pid004_20251111_154532.csv,A3,Abstract,3,8,ConcreteFirst,2,2022_CH_60,2022,CH,60,abstract,3243.969297,3243.990333,3285.482651,3291.889,3308.201241,16.312280700018164,16.312267,B,ANS_B,1,2,"[41.365227, 6.272815]",ITI duration: 3.09s,23
PID004,PID004,20251111_154532,2025-11-11 15:45:32,enem_blocks_pid004_20251111_154532.csv,/home/thiago/Documents/fnirs/simple/sessions/Sessions 11-11-25/PID004/enem_blocks_pid004_20251111_154532.csv,A3,Abstract,3,8,ConcreteFirst,3,2022_CH_51,2022,CH,51,abstract,3312.408704,3312.426846,3358.819218,3363.241091,3421.117976,57.8769283000147,57.876919,B,ANS_B,1,2,"[46.26782, 4.29013]",ITI duration: 3.68s,24
PID004,PID004,20251111_154532,2025-11-11 15:45:32,enem_blocks_pid004_20251111_154532.csv,/home/thiago/Documents/fnirs/simple/sessions/Sessions 11-11-25/PID004/enem_blocks_pid004_20251111_154532.csv,A4,Abstract,4,9,ConcreteFirst,1,2021_CH_65,2021,CH,65,abstract,3590.848223,3590.863939,3639.543106,3642.849262,3684.376862,41.527641299995594,41.527627,B,ANS_B,1,2,"[48.552786, 3.172042]",ITI duration: 3.05s,25
PID004,PID004,20251111_154532,2025-11-11 15:45:32,enem_blocks_pid004_20251111_154532.csv,/home/thiago/Documents/fnirs/simple/sessions/Sessions 11-11-25/PID004/enem_blocks_pid004_20251111_154532.csv,A4,Abstract,4,9,ConcreteFirst,2,2019_CH_56,2019,CH,56,abstract,3688.181923,3688.196656,3713.050231,3718.686064,3761.395908,42.709884500014596,42.709875,A,ANS_A,1,2,"[24.724839, 5.504717]",ITI duration: 3.29s,26
PID004,PID004,20251111_154532,2025-11-11 15:45:32,enem_blocks_pid004_20251111_154532.csv,/home/thiago/Documents/fnirs/simple/sessions/Sessions 11-11-25/PID004/enem_blocks_pid004_20251111_154532.csv,A4,Abstract,4,9,ConcreteFirst,3,2020_LC_31,2020,LC,31,abstract,3765.269807,3765.291373,3811.382603,3818.177189,3857.682597,39.50544690003153,39.505433,E,ANS_E,1,2,"[45.964678, 6.655594]",ITI duration: 3.36s,27
PID004,PID004,20251111_154532,2025-11-11 15:45:32,enem_blocks_pid004_20251111_154532.csv,/home/thiago/Documents/fnirs/simple/sessions/Sessions 11-11-25/PID004/enem_blocks_pid004_20251111_154532.csv,A5,Abstract,5,10,ConcreteFirst,1,2019_CH_64,2019,CH,64,abstract,4014.315348,4014.332521,4049.128698,4053.553253,4106.793142,53.23992930003442,53.239914,A,ANS_A,1,2,"[34.669455, 4.289183]",ITI duration: 4.58s,28
PID004,PID004,20251111_154532,2025-11-11 15:45:32,enem_blocks_pid004_20251111_154532.csv,/home/thiago/Documents/fnirs/simple/sessions/Sessions 11-11-25/PID004/enem_blocks_pid004_20251111_154532.csv,A5,Abstract,5,10,ConcreteFirst,2,2020_CH_77,2020,CH,77,abstract,4111.382194,4111.39567,4133.180349,4140.990795,4215.259909,74.26916139997775,74.269145,A,ANS_A,1,2,"[21.659603, 7.674151]",ITI duration: 4.07s,29
PID004,PID004,20251111_154532,2025-11-11 15:45:32,enem_blocks_pid004_20251111_154532.csv,/home/thiago/Documents/fnirs/simple/sessions/Sessions 11-11-25/PID004/enem_blocks_pid004_20251111_154532.csv,A5,Abstract,5,10,ConcreteFirst,3,2022_CH_47,2022,CH,47,abstract,4219.416575,4219.436654,4258.733013,4263.803614,4319.510866,55.707291099999566,55.707262,E,ANS_E,1,2,"[39.166494, 4.935815]",ITI duration: 3.65s,30
PID005,PID05,20251112_112312,2025-11-12 11:23:12,enem_blocks_PID05_20251112_112312.csv,/home/thiago/Documents/fnirs/simple/sessions/Sessions 12-11-25/PID05/enem_blocks_PID05_20251112_112312.csv,C1,Concrete,1,1,ConcreteFirst,1,2020_CH_59,2020,CH,59,concrete,255.416526,255.447291,289.23271,300.271601,379.273479,79.00191290001385,79.001879,E,ANS_E,1,2,"[33.656059, 10.885003]",ITI duration: 3.33s,1
PID005,PID05,20251112_112312,2025-11-12 11:23:12,enem_blocks_PID05_20251112_112312.csv,/home/thiago/Documents/fnirs/simple/sessions/Sessions 12-11-25/PID05/enem_blocks_PID05_20251112_112312.csv,C1,Concrete,1,1,ConcreteFirst,2,2017_CH_69,2017,CH,69,concrete,384.495289,384.509701,418.528214,427.857028,480.705865,52.8488733000122,52.848857,B,ANS_B,1,2,"[33.889172, 9.186145]",ITI duration: 4.71s,2
PID005,PID05,20251112_112312,2025-11-12 11:23:12,enem_blocks_PID05_20251112_112312.csv,/home/thiago/Documents/fnirs/simple/sessions/Sessions 12-11-25/PID05/enem_blocks_PID05_20251112_112312.csv,C1,Concrete,1,1,ConcreteFirst,3,2020_CH_56,2020,CH,56,concrete,485.995979,486.008335,509.16233,521.103907,566.742809,45.63893569994252,45.638927,D,ANS_D,1,2,"[23.026204, 11.804641]",ITI duration: 4.77s,3
PID005,PID05,20251112_112312,2025-11-12 11:23:12,enem_blocks_PID05_20251112_112312.csv,/home/thiago/Documents/fnirs/simple/sessions/Sessions 12-11-25/PID05/enem_blocks_PID05_20251112_112312.csv,C2,Concrete,2,2,ConcreteFirst,1,2018_LC_44,2018,LC,44,concrete,679.182672,679.208153,725.627884,731.833904,756.562611,24.72874349995982,24.728729,C,ANS_C,1,2,"[46.291944, 6.07147]",ITI duration: 4.03s,4
PID005,PID05,20251112_112312,2025-11-12 11:23:12,enem_blocks_PID05_20251112_112312.csv,/home/thiago/Documents/fnirs/simple/sessions/Sessions 12-11-25/PID05/enem_blocks_PID05_20251112_112312.csv,C2,Concrete,2,2,ConcreteFirst,2,2017_CH_68,2017,CH,68,concrete,761.70286,761.711916,793.048677,801.528261,840.032454,38.50422650005203,38.504213,A,ANS_A,1,2,"[31.212082, 8.339406]",ITI duration: 4.62s,5
PID005,PID05,20251112_112312,2025-11-12 11:23:12,enem_blocks_PID05_20251112_112312.csv,/home/thiago/Documents/fnirs/simple/sessions/Sessions 12-11-25/PID05/enem_blocks_PID05_20251112_112312.csv,C2,Concrete,2,2,ConcreteFirst,3,2020_CH_78,2020,CH,78,concrete,844.422792,844.432491,856.237021,864.697707,871.777387,7.0797153998864815,7.079706,C,ANS_C,1,2,"[11.680016, 8.326009]",ITI duration: 3.87s,6
PID005,PID05,20251112_112312,2025-11-12 11:23:12,enem_blocks_PID05_20251112_112312.csv,/home/thiago/Documents/fnirs/simple/sessions/Sessions 12-11-25/PID05/enem_blocks_PID05_20251112_112312.csv,C3,Concrete,3,3,ConcreteFirst,1,2017_CH_75,2017,CH,75,concrete,1101.598773,1101.619095,1124.981508,1127.660715,1140.469624,12.808945600059815,12.808936,A,ANS_A,1,2,"[23.236121, 2.538618]",ITI duration: 4.57s,7
PID005,PID05,20251112_112312,2025-11-12 11:23:12,enem_blocks_PID05_20251112_112312.csv,/home/thiago/Documents/fnirs/simple/sessions/Sessions 12-11-25/PID05/enem_blocks_PID05_20251112_112312.csv,C3,Concrete,3,3,ConcreteFirst,2,2021_CH_76,2021,CH,76,concrete,1144.608305,1144.626278,1188.539642,1198.393976,1224.488426,26.094485600013286,26.09447,B,ANS_B,1,2,"[43.784201, 9.719847]",ITI duration: 3.63s,8
PID005,PID05,20251112_112312,2025-11-12 11:23:12,enem_blocks_PID05_20251112_112312.csv,/home/thiago/Documents/fnirs/simple/sessions/Sessions 12-11-25/PID05/enem_blocks_PID05_20251112_112312.csv,C3,Concrete,3,3,ConcreteFirst,3,2020_CH_82,2020,CH,82,concrete,1228.312609,1228.329708,1268.673497,1276.863157,1318.356432,41.493309999932535,41.493295,E,ANS_E,1,2,"[40.217785, 8.055837]",ITI duration: 3.31s,9
PID005,PID05,20251112_112312,2025-11-12 11:23:12,enem_blocks_PID05_20251112_112312.csv,/home/thiago/Documents/fnirs/simple/sessions/Sessions 12-11-25/PID05/enem_blocks_PID05_20251112_112312.csv,C4,Concrete,4,4,ConcreteFirst,1,2017_CH_47,2017,CH,47,concrete,1522.966547,1522.979535,1543.047052,1548.383491,1565.650863,17.26740949996747,17.267395,D,ANS_D,1,2,"[19.941135, 5.190686]",ITI duration: 4.29s,10
PID005,PID05,20251112_112312,2025-11-12 11:23:12,enem_blocks_PID05_20251112_112312.csv,/home/thiago/Documents/fnirs/simple/sessions/Sessions 12-11-25/PID05/enem_blocks_PID05_20251112_112312.csv,C4,Concrete,4,4,ConcreteFirst,2,2020_CH_84,2020,CH,84,concrete,1569.225037,1569.236773,1594.289211,1602.012977,1631.306899,29.293958900030702,29.29395,C,ANS_C,1,2,"[24.926585, 7.589665]",ITI duration: 3.05s,11
PID005,PID05,20251112_112312,2025-11-12 11:23:12,enem_blocks_PID05_20251112_112312.csv,/home/thiago/Documents/fnirs/simple/sessions/Sessions 12-11-25/PID05/enem_blocks_PID05_20251112_112312.csv,C4,Concrete,4,4,ConcreteFirst,3,2021_LC_26,2021,LC,26,concrete,1636.18087,1636.218361,1723.537254,1731.752903,1782.934632,51.181776299956255,51.181765,D,ANS_D,1,2,"[87.19085, 8.071133]",ITI duration: 4.35s,12
PID005,PID05,20251112_112312,2025-11-12 11:23:12,enem_blocks_PID05_20251112_112312.csv,/home/thiago/Documents/fnirs/simple/sessions/Sessions 12-11-25/PID05/enem_blocks_PID05_20251112_112312.csv,C5,Concrete,5,5,ConcreteFirst,1,2020_CH_70,2020,CH,70,concrete,1945.732672,1945.744007,1979.715939,1985.201173,2021.746492,36.54535329993814,36.545326,E,ANS_E,1,2,"[33.842177, 5.351144]",ITI duration: 4.88s,13
PID005,PID05,20251112_112312,2025-11-12 11:23:12,enem_blocks_PID05_20251112_112312.csv,/home/thiago/Documents/fnirs/simple/sessions/Sessions 12-11-25/PID05/enem_blocks_PID05_20251112_112312.csv,C5,Concrete,5,5,ConcreteFirst,2,2018_CH_77,2018,CH,77,concrete,2026.68548,2026.695491,2053.617153,2059.573387,2106.332569,46.759218999999575,46.759206,E,ANS_E,1,2,"[26.795269, 5.821957]",ITI duration: 4.42s,14
PID005,PID05,20251112_112312,2025-11-12 11:23:12,enem_blocks_PID05_20251112_112312.csv,/home/thiago/Documents/fnirs/simple/sessions/Sessions 12-11-25/PID05/enem_blocks_PID05_20251112_112312.csv,C5,Concrete,5,5,ConcreteFirst,3,2021_CH_46,2021,CH,46,concrete,2110.872574,2110.887585,2135.353941,2140.059159,2152.608569,12.54944509989582,12.549436,A,ANS_A,1,2,"[24.339277, 4.572894]",ITI duration: 4.03s,15
PID005,PID05,20251112_112312,2025-11-12 11:23:12,enem_blocks_PID05_20251112_112312.csv,/home/thiago/Documents/fnirs/simple/sessions/Sessions 12-11-25/PID05/enem_blocks_PID05_20251112_112312.csv,A1,Abstract,1,6,ConcreteFirst,1,2022_CH_51,2022,CH,51,abstract,2366.397838,2366.411245,2422.757616,2434.946777,2449.844042,14.897302400087938,14.897289,D,ANS_D,1,2,"[56.220281, 12.056842]",ITI duration: 3.11s,16
PID005,PID05,20251112_112312,2025-11-12 11:23:12,enem_blocks_PID05_20251112_112312.csv,/home/thiago/Documents/fnirs/simple/sessions/Sessions 12-11-25/PID05/enem_blocks_PID05_20251112_112312.csv,A1,Abstract,1,6,ConcreteFirst,2,2021_CH_83,2021,CH,83,abstract,2454.0838,2454.105007,2499.010988,2515.380833,2523.415692,8.03489280003123,8.034884,A,ANS_A,1,2,"[44.781641, 16.22297]",ITI duration: 3.72s,17
PID005,PID05,20251112_112312,2025-11-12 11:23:12,enem_blocks_PID05_20251112_112312.csv,/home/thiago/Documents/fnirs/simple/sessions/Sessions 12-11-25/PID05/enem_blocks_PID05_20251112_112312.csv,A1,Abstract,1,6,ConcreteFirst,3,2020_CH_76,2020,CH,76,abstract,2528.389634,2528.403063,2587.73279,2591.853749,2604.353129,12.499419300002046,12.499409,E,ANS_E,1,2,"[59.202275, 3.98896]",ITI duration: 4.45s,18
PID005,PID05,20251112_112312,2025-11-12 11:23:12,enem_blocks_PID05_20251112_112312.csv,/home/thiago/Documents/fnirs/simple/sessions/Sessions 12-11-25/PID05/enem_blocks_PID05_20251112_112312.csv,A2,Abstract,2,7,ConcreteFirst,1,2021_CH_65,2021,CH,65,abstract,2790.948944,2790.958484,2827.72689,2832.316609,2845.364023,13.047455699997954,13.047441,A,ANS_A,1,2,"[36.641792, 4.456583]",ITI duration: 3.57s,19
PID005,PID05,20251112_112312,2025-11-12 11:23:12,enem_blocks_PID05_20251112_112312.csv,/home/thiago/Documents/fnirs/simple/sessions/Sessions 12-11-25/PID05/enem_blocks_PID05_20251112_112312.csv,A2,Abstract,2,7,ConcreteFirst,2,2020_LC_31,2020,LC,31,abstract,2849.788001,2849.80519,2923.497031,2934.019651,2969.179655,35.16004290001001,35.16003,D,ANS_D,1,2,"[73.56319, 10.387384]",ITI duration: 3.90s,20
PID005,PID05,20251112_112312,2025-11-12 11:23:12,enem_blocks_PID05_20251112_112312.csv,/home/thiago/Documents/fnirs/simple/sessions/Sessions 12-11-25/PID05/enem_blocks_PID05_20251112_112312.csv,A2,Abstract,2,7,ConcreteFirst,3,2019_CH_56,2019,CH,56,abstract,2973.785612,2973.802982,3014.598162,3025.484616,3111.355625,85.87104320002254,85.871035,D,ANS_D,1,2,"[40.667419, 10.75415]",ITI duration: 4.09s,21
PID005,PID05,20251112_112312,2025-11-12 11:23:12,enem_blocks_PID05_20251112_112312.csv,/home/thiago/Documents/fnirs/simple/sessions/Sessions 12-11-25/PID05/enem_blocks_PID05_20251112_112312.csv,A3,Abstract,3,8,ConcreteFirst,1,2020_CH_77,2020,CH,77,abstract,3213.131087,3213.144692,3255.212273,3268.349223,3291.660705,23.311521099996753,23.311507,A,ANS_A,1,2,"[41.938053, 13.001603]",ITI duration: 3.49s,22
PID005,PID05,20251112_112312,2025-11-12 11:23:12,enem_blocks_PID05_20251112_112312.csv,/home/thiago/Documents/fnirs/simple/sessions/Sessions 12-11-25/PID05/enem_blocks_PID05_20251112_112312.csv,A3,Abstract,3,8,ConcreteFirst,2,2019_CH_65,2019,CH,65,abstract,3295.468388,3295.480892,3331.71408,3338.919769,3364.133337,25.213603399926797,25.213588,A,ANS_A,1,2,"[36.107415, 7.072482]",ITI duration: 3.29s,23
PID005,PID05,20251112_112312,2025-11-12 11:23:12,enem_blocks_PID05_20251112_112312.csv,/home/thiago/Documents/fnirs/simple/sessions/Sessions 12-11-25/PID05/enem_blocks_PID05_20251112_112312.csv,A3,Abstract,3,8,ConcreteFirst,3,2021_CH_57,2021,CH,57,abstract,3368.638658,3368.646892,3407.501656,3411.855982,3443.503776,31.647834700066596,31.647808,B,ANS_B,1,2,"[38.728881, 4.223698]",ITI duration: 4.00s,24
PID005,PID05,20251112_112312,2025-11-12 11:23:12,enem_blocks_PID05_20251112_112312.csv,/home/thiago/Documents/fnirs/simple/sessions/Sessions 12-11-25/PID05/enem_blocks_PID05_20251112_112312.csv,A4,Abstract,4,9,ConcreteFirst,1,2019_CH_64,2019,CH,64,abstract,3635.397533,3635.417247,3675.647303,3683.983333,3712.561474,28.578181999968365,28.578159,C,ANS_C,1,2,"[40.099275, 8.20105]",ITI duration: 4.56s,25
PID005,PID05,20251112_112312,2025-11-12 11:23:12,enem_blocks_PID05_20251112_112312.csv,/home/thiago/Documents/fnirs/simple/sessions/Sessions 12-11-25/PID05/enem_blocks_PID05_20251112_112312.csv,A4,Abstract,4,9,ConcreteFirst,2,2022_CH_60,2022,CH,60,abstract,3716.951176,3716.968436,3761.612635,3772.518512,3796.264651,23.74617820000276,23.746163,B,ANS_B,1,2,"[44.517407, 10.77261]",ITI duration: 3.88s,26
PID005,PID05,20251112_112312,2025-11-12 11:23:12,enem_blocks_PID05_20251112_112312.csv,/home/thiago/Documents/fnirs/simple/sessions/Sessions 12-11-25/PID05/enem_blocks_PID05_20251112_112312.csv,A4,Abstract,4,9,ConcreteFirst,3,2021_CH_51,2021,CH,51,abstract,3801.004493,3801.014603,3839.383075,3848.325987,3885.899449,37.573500900063664,37.573487,A,ANS_A,1,2,"[38.241938, 8.80765]",ITI duration: 4.23s,27
PID005,PID05,20251112_112312,2025-11-12 11:23:12,enem_blocks_PID05_20251112_112312.csv,/home/thiago/Documents/fnirs/simple/sessions/Sessions 12-11-25/PID05/enem_blocks_PID05_20251112_112312.csv,A5,Abstract,5,10,ConcreteFirst,1,2021_CH_86,2021,CH,86,abstract,4057.663623,4057.676693,4096.558334,4110.332854,4122.128721,11.795901699922979,11.795892,A,ANS_A,1,2,"[38.755883, 13.63939]",ITI duration: 4.54s,28
PID005,PID05,20251112_112312,2025-11-12 11:23:12,enem_blocks_PID05_20251112_112312.csv,/home/thiago/Documents/fnirs/simple/sessions/Sessions 12-11-25/PID05/enem_blocks_PID05_20251112_112312.csv,A5,Abstract,5,10,ConcreteFirst,2,2022_CH_71,2022,CH,71,abstract,4126.935729,4126.947477,4163.882831,4173.506834,4210.248,36.74121180002112,36.741199,D,ANS_D,1,2,"[36.809514, 9.48773]",ITI duration: 4.29s,29
PID005,PID05,20251112_112312,2025-11-12 11:23:12,enem_blocks_PID05_20251112_112312.csv,/home/thiago/Documents/fnirs/simple/sessions/Sessions 12-11-25/PID05/enem_blocks_PID05_20251112_112312.csv,A5,Abstract,5,10,ConcreteFirst,3,2022_CH_47,2022,CH,47,abstract,4214.971543,4214.98767,4275.448582,4280.453952,4294.034545,13.580628099967726,13.580618,E,ANS_E,1,2,"[60.333164, 4.871224]",ITI duration: 4.21s,30
PID007,PID007,20251113_163330,2025-11-13 16:33:30,enem_blocks_pid007_20251113_163330.csv,/home/thiago/Documents/fnirs/simple/sessions/Sessions 13-11-25/PID007/enem_blocks_pid007_20251113_163330.csv,C1,Concrete,1,1,ConcreteFirst,1,2021_CH_46,2021,CH,46,concrete,226.49653,226.543281,245.49425,254.816472,307.342026,52.52559149998706,52.525583,C,ANS_C,1,2,"[18.826077, 9.173358]",ITI duration: 4.40s,1
PID007,PID007,20251113_163330,2025-11-13 16:33:30,enem_blocks_pid007_20251113_163330.csv,/home/thiago/Documents/fnirs/simple/sessions/Sessions 13-11-25/PID007/enem_blocks_pid007_20251113_163330.csv,C1,Concrete,1,1,ConcreteFirst,2,2018_CH_77,2018,CH,77,concrete,311.899365,311.913586,337.750863,342.14574,369.816737,27.671032899990678,27.671024,A,ANS_A,1,2,"[25.707855, 4.254128]",ITI duration: 4.04s,2
PID007,PID007,20251113_163330,2025-11-13 16:33:30,enem_blocks_pid007_20251113_163330.csv,/home/thiago/Documents/fnirs/simple/sessions/Sessions 13-11-25/PID007/enem_blocks_pid007_20251113_163330.csv,C1,Concrete,1,1,ConcreteFirst,3,2020_CH_84,2020,CH,84,concrete,374.12375,374.134812,395.553964,398.91333,449.303988,50.39069919998292,50.39069,C,ANS_C,1,2,"[21.293896, 3.224405]",ITI duration: 3.79s,3
PID007,PID007,20251113_163330,2025-11-13 16:33:30,enem_blocks_pid007_20251113_163330.csv,/home/thiago/Documents/fnirs/simple/sessions/Sessions 13-11-25/PID007/enem_blocks_pid007_20251113_163330.csv,C2,Concrete,2,2,ConcreteFirst,1,2018_LC_44,2018,LC,44,concrete,647.547182,647.573192,687.76372,694.931922,724.594018,29.662130600074306,29.662122,D,ANS_D,1,2,"[40.059035, 7.035036]",ITI duration: 3.03s,4
PID007,PID007,20251113_163330,2025-11-13 16:33:30,enem_blocks_pid007_20251113_163330.csv,/home/thiago/Documents/fnirs/simple/sessions/Sessions 13-11-25/PID007/enem_blocks_pid007_20251113_163330.csv,C2,Concrete,2,2,ConcreteFirst,2,2020_CH_56,2020,CH,56,concrete,730.000358,730.00961,740.35219,748.803124,762.288373,13.485289399977773,13.485281,D,ANS_D,1,2,"[10.215705, 8.321559]",ITI duration: 4.89s,5
PID007,PID007,20251113_163330,2025-11-13 16:33:30,enem_blocks_pid007_20251113_163330.csv,/home/thiago/Documents/fnirs/simple/sessions/Sessions 13-11-25/PID007/enem_blocks_pid007_20251113_163330.csv,C2,Concrete,2,2,ConcreteFirst,3,2017_CH_75,2017,CH,75,concrete,766.462496,766.484041,802.546448,805.60314,879.786351,74.1832499000011,74.183241,D,ANS_D,1,2,"[35.932197, 2.919507]",ITI duration: 3.66s,6
PID007,PID007,20251113_163330,2025-11-13 16:33:30,enem_blocks_pid007_20251113_163330.csv,/home/thiago/Documents/fnirs/simple/sessions/Sessions 13-11-25/PID007/enem_blocks_pid007_20251113_163330.csv,C3,Concrete,3,3,ConcreteFirst,1,2021_LC_26,2021,LC,26,concrete,1072.031667,1072.065839,1136.555211,1145.235501,1212.367233,67.13177049998194,67.131758,D,ANS_D,1,2,"[64.363481, 8.539398]",ITI duration: 4.97s,7
PID007,PID007,20251113_163330,2025-11-13 16:33:30,enem_blocks_pid007_20251113_163330.csv,/home/thiago/Documents/fnirs/simple/sessions/Sessions 13-11-25/PID007/enem_blocks_pid007_20251113_163330.csv,C3,Concrete,3,3,ConcreteFirst,2,2020_CH_78,2020,CH,78,concrete,1216.558773,1216.564689,1229.373232,1235.996613,1295.538607,59.54203180002514,59.542022,B,ANS_B,1,2,"[12.682363, 6.490899]",ITI duration: 3.68s,8
PID007,PID007,20251113_163330,2025-11-13 16:33:30,enem_blocks_pid007_20251113_163330.csv,/home/thiago/Documents/fnirs/simple/sessions/Sessions 13-11-25/PID007/enem_blocks_pid007_20251113_163330.csv,C3,Concrete,3,3,ConcreteFirst,3,2021_CH_76,2021,CH,76,concrete,1300.16238,1300.181236,1337.291265,1347.110989,1373.143097,26.03214649995789,26.032137,B,ANS_B,1,2,"[36.983491, 9.688199]",ITI duration: 4.11s,9
PID007,PID007,20251113_163330,2025-11-13 16:33:30,enem_blocks_pid007_20251113_163330.csv,/home/thiago/Documents/fnirs/simple/sessions/Sessions 13-11-25/PID007/enem_blocks_pid007_20251113_163330.csv,C4,Concrete,4,4,ConcreteFirst,1,2020_CH_70,2020,CH,70,concrete,1493.532029,1493.542513,1527.827977,1544.018431,1620.752743,76.73434840003029,76.734339,E,ANS_E,1,2,"[34.158696, 16.054491]",ITI duration: 4.27s,10
PID007,PID007,20251113_163330,2025-11-13 16:33:30,enem_blocks_pid007_20251113_163330.csv,/home/thiago/Documents/fnirs/simple/sessions/Sessions 13-11-25/PID007/enem_blocks_pid007_20251113_163330.csv,C4,Concrete,4,4,ConcreteFirst,2,2020_CH_82,2020,CH,82,concrete,1624.327788,1624.345435,1652.608197,1657.544063,1707.024067,49.48003890004475,49.48002,A,ANS_A,1,2,"[28.135479, 4.805374]",ITI duration: 3.06s,11
PID007,PID007,20251113_163330,2025-11-13 16:33:30,enem_blocks_pid007_20251113_163330.csv,/home/thiago/Documents/fnirs/simple/sessions/Sessions 13-11-25/PID007/enem_blocks_pid007_20251113_163330.csv,C4,Concrete,4,4,ConcreteFirst,3,2020_CH_59,2020,CH,59,concrete,1711.278981,1711.291498,1736.278275,1742.816288,1775.979172,33.162926799966954,33.162917,E,ANS_E,1,2,"[24.860198, 6.406363]",ITI duration: 3.74s,12
PID007,PID007,20251113_163330,2025-11-13 16:33:30,enem_blocks_pid007_20251113_163330.csv,/home/thiago/Documents/fnirs/simple/sessions/Sessions 13-11-25/PID007/enem_blocks_pid007_20251113_163330.csv,C5,Concrete,5,5,ConcreteFirst,1,2017_CH_68,2017,CH,68,concrete,1915.214549,1915.223492,1952.309975,1966.897191,1995.728055,28.830900000059046,28.830875,D,ANS_D,1,2,"[36.961297, 14.455863]",ITI duration: 4.67s,13
PID007,PID007,20251113_163330,2025-11-13 16:33:30,enem_blocks_pid007_20251113_163330.csv,/home/thiago/Documents/fnirs/simple/sessions/Sessions 13-11-25/PID007/enem_blocks_pid007_20251113_163330.csv,C5,Concrete,5,5,ConcreteFirst,2,2017_CH_47,2017,CH,47,concrete,1999.385206,1999.397811,2024.898612,2030.68085,2060.95087,30.27006030001212,30.270049,D,ANS_D,1,2,"[25.376619, 5.641124]",ITI duration: 3.14s,14
PID007,PID007,20251113_163330,2025-11-13 16:33:30,enem_blocks_pid007_20251113_163330.csv,/home/thiago/Documents/fnirs/simple/sessions/Sessions 13-11-25/PID007/enem_blocks_pid007_20251113_163330.csv,C5,Concrete,5,5,ConcreteFirst,3,2017_CH_69,2017,CH,69,concrete,2065.092114,2065.117965,2088.676152,2111.741328,2151.303417,39.56212969997432,39.562121,D,ANS_D,1,2,"[23.428098, 22.933316]",ITI duration: 3.62s,15
PID007,PID007,20251113_163330,2025-11-13 16:33:30,enem_blocks_pid007_20251113_163330.csv,/home/thiago/Documents/fnirs/simple/sessions/Sessions 13-11-25/PID007/enem_blocks_pid007_20251113_163330.csv,A1,Abstract,1,6,ConcreteFirst,1,2020_LC_31,2020,LC,31,abstract,2337.499227,2337.52016,2382.978848,2391.634356,2411.064307,19.42999500001315,19.429986,E,ANS_E,1,2,"[45.331718, 8.521415]",ITI duration: 3.85s,16
PID007,PID007,20251113_163330,2025-11-13 16:33:30,enem_blocks_pid007_20251113_163330.csv,/home/thiago/Documents/fnirs/simple/sessions/Sessions 13-11-25/PID007/enem_blocks_pid007_20251113_163330.csv,A1,Abstract,1,6,ConcreteFirst,2,2022_CH_71,2022,CH,71,abstract,2415.954964,2415.963958,2437.302906,2443.592309,2536.394206,92.8019330999814,92.801924,A,ANS_A,1,2,"[21.212028, 6.154415]",ITI duration: 4.37s,17
PID007,PID007,20251113_163330,2025-11-13 16:33:30,enem_blocks_pid007_20251113_163330.csv,/home/thiago/Documents/fnirs/simple/sessions/Sessions 13-11-25/PID007/enem_blocks_pid007_20251113_163330.csv,A1,Abstract,1,6,ConcreteFirst,3,2020_CH_77,2020,CH,77,abstract,2541.534358,2541.544213,2571.316151,2579.389107,2638.678038,59.28896859998349,59.288957,A,ANS_A,1,2,"[29.64412, 7.937393]",ITI duration: 4.62s,18
PID007,PID007,20251113_163330,2025-11-13 16:33:30,enem_blocks_pid007_20251113_163330.csv,/home/thiago/Documents/fnirs/simple/sessions/Sessions 13-11-25/PID007/enem_blocks_pid007_20251113_163330.csv,A2,Abstract,2,7,ConcreteFirst,1,2022_CH_47,2022,CH,47,abstract,2760.03333,2760.049772,2799.694598,2807.467212,2858.775878,51.30870560009498,51.308696,C,ANS_C,1,2,"[39.518986, 7.639687]",ITI duration: 4.68s,19
PID007,PID007,20251113_163330,2025-11-13 16:33:30,enem_blocks_pid007_20251113_163330.csv,/home/thiago/Documents/fnirs/simple/sessions/Sessions 13-11-25/PID007/enem_blocks_pid007_20251113_163330.csv,A2,Abstract,2,7,ConcreteFirst,2,2022_CH_60,2022,CH,60,abstract,2864.06676,2864.081878,2908.860603,2933.199365,3009.468752,76.26942320005037,76.269414,E,ANS_E,1,2,"[44.654047, 24.203448]",ITI duration: 4.77s,20
PID007,PID007,20251113_163330,2025-11-13 16:33:30,enem_blocks_pid007_20251113_163330.csv,/home/thiago/Documents/fnirs/simple/sessions/Sessions 13-11-25/PID007/enem_blocks_pid007_20251113_163330.csv,A2,Abstract,2,7,ConcreteFirst,3,2021_CH_83,2021,CH,83,abstract,3014.876324,3014.894544,3057.504997,3062.183127,3087.822596,25.63954200001899,25.639533,A,ANS_A,1,2,"[42.483979, 4.538837]",ITI duration: 4.89s,21
PID007,PID007,20251113_163330,2025-11-13 16:33:30,enem_blocks_pid007_20251113_163330.csv,/home/thiago/Documents/fnirs/simple/sessions/Sessions 13-11-25/PID007/enem_blocks_pid007_20251113_163330.csv,A3,Abstract,3,8,ConcreteFirst,1,2021_CH_51,2021,CH,51,abstract,3181.517485,3181.526798,3214.211864,3218.522331,3269.67999,51.157702399999835,51.157692,C,ANS_C,1,2,"[32.559307, 4.175816]",ITI duration: 4.36s,22
PID007,PID007,20251113_163330,2025-11-13 16:33:30,enem_blocks_pid007_20251113_163330.csv,/home/thiago/Documents/fnirs/simple/sessions/Sessions 13-11-25/PID007/enem_blocks_pid007_20251113_163330.csv,A3,Abstract,3,8,ConcreteFirst,2,2020_CH_76,2020,CH,76,abstract,3273.635649,3273.651257,3306.230939,3311.770652,3378.495634,66.72504160006065,66.725032,E,ANS_E,1,2,"[32.455229, 5.407795]",ITI duration: 3.44s,23
PID007,PID007,20251113_163330,2025-11-13 16:33:30,enem_blocks_pid007_20251113_163330.csv,/home/thiago/Documents/fnirs/simple/sessions/Sessions 13-11-25/PID007/enem_blocks_pid007_20251113_163330.csv,A3,Abstract,3,8,ConcreteFirst,3,2021_CH_65,2021,CH,65,abstract,3382.768105,3382.777804,3398.317426,3416.407263,3483.479237,67.07201569993049,67.072006,A,ANS_A,1,2,"[15.414098, 17.954959]",ITI duration: 3.76s,24
PID007,PID007,20251113_163330,2025-11-13 16:33:30,enem_blocks_pid007_20251113_163330.csv,/home/thiago/Documents/fnirs/simple/sessions/Sessions 13-11-25/PID007/enem_blocks_pid007_20251113_163330.csv,A4,Abstract,4,9,ConcreteFirst,1,2021_CH_86,2021,CH,86,abstract,3602.68416,3602.69356,3632.448528,3641.788426,3684.131066,42.34268040000461,42.342671,A,ANS_A,1,2,"[29.628813, 9.205619]",ITI duration: 3.93s,25
PID007,PID007,20251113_163330,2025-11-13 16:33:30,enem_blocks_pid007_20251113_163330.csv,/home/thiago/Documents/fnirs/simple/sessions/Sessions 13-11-25/PID007/enem_blocks_pid007_20251113_163330.csv,A4,Abstract,4,9,ConcreteFirst,2,2019_CH_64,2019,CH,64,abstract,3688.087524,3688.099979,3720.331973,3727.57364,3737.604975,10.031375000020489,10.031365,C,ANS_C,1,2,"[32.10688, 7.106817]",ITI duration: 3.44s,26
PID007,PID007,20251113_163330,2025-11-13 16:33:30,enem_blocks_pid007_20251113_163330.csv,/home/thiago/Documents/fnirs/simple/sessions/Sessions 13-11-25/PID007/enem_blocks_pid007_20251113_163330.csv,A4,Abstract,4,9,ConcreteFirst,3,2019_CH_56,2019,CH,56,abstract,3741.8296,3741.841782,3768.762153,3783.565264,3806.5451,22.979875099961646,22.979865,D,ANS_D,1,2,"[26.792199, 14.670124]",ITI duration: 3.70s,27
PID007,PID007,20251113_163330,2025-11-13 16:33:30,enem_blocks_pid007_20251113_163330.csv,/home/thiago/Documents/fnirs/simple/sessions/Sessions 13-11-25/PID007/enem_blocks_pid007_20251113_163330.csv,A5,Abstract,5,10,ConcreteFirst,1,2021_CH_57,2021,CH,57,abstract,4032.316433,4032.326162,4056.481171,4068.838034,4127.911061,59.07306399999652,59.073054,B,ANS_B,1,2,"[24.030435, 12.22244]",ITI duration: 3.32s,28
PID007,PID007,20251113_163330,2025-11-13 16:33:30,enem_blocks_pid007_20251113_163330.csv,/home/thiago/Documents/fnirs/simple/sessions/Sessions 13-11-25/PID007/enem_blocks_pid007_20251113_163330.csv,A5,Abstract,5,10,ConcreteFirst,2,2019_CH_65,2019,CH,65,abstract,4133.250536,4133.262371,4157.815211,4164.473231,4210.947085,46.473887000000104,46.473878,A,ANS_A,1,2,"[24.427253, 6.522877]",ITI duration: 4.82s,29
PID007,PID007,20251113_163330,2025-11-13 16:33:30,enem_blocks_pid007_20251113_163330.csv,/home/thiago/Documents/fnirs/simple/sessions/Sessions 13-11-25/PID007/enem_blocks_pid007_20251113_163330.csv,A5,Abstract,5,10,ConcreteFirst,3,2022_CH_51,2022,CH,51,abstract,4216.086741,4216.099909,4242.334637,4250.723178,4297.750482,47.027338700019754,47.02733,A,ANS_A,1,2,"[26.110107, 8.257008]",ITI duration: 4.63s,30
PID008,PID08,20251114_124523,2025-11-14 12:45:23,enem_blocks_PID08_20251114_124523.csv,/home/thiago/Documents/fnirs/simple/sessions/Sessions 14-11-25/PID08/enem_blocks_PID08_20251114_124523.csv,A1,Abstract,1,1,AbstractFirst,1,2022_CH_60,2022,CH,60,abstract,185.39394,185.421525,212.493763,221.835104,268.156174,46.32111060002353,46.321102,C,ANS_C,1,2,"[26.944224, 9.186775]",ITI duration: 4.55s,1
PID008,PID08,20251114_124523,2025-11-14 12:45:23,enem_blocks_PID08_20251114_124523.csv,/home/thiago/Documents/fnirs/simple/sessions/Sessions 14-11-25/PID08/enem_blocks_PID08_20251114_124523.csv,A1,Abstract,1,1,AbstractFirst,2,2019_CH_64,2019,CH,64,abstract,273.429789,273.452916,288.86638,295.441009,317.198289,21.75732670002617,21.757315,C,ANS_C,1,2,"[15.283568, 6.435188]",ITI duration: 4.75s,2
PID008,PID08,20251114_124523,2025-11-14 12:45:23,enem_blocks_PID08_20251114_124523.csv,/home/thiago/Documents/fnirs/simple/sessions/Sessions 14-11-25/PID08/enem_blocks_PID08_20251114_124523.csv,A1,Abstract,1,1,AbstractFirst,3,2022_CH_51,2022,CH,51,abstract,321.237937,321.258315,358.052478,366.792425,412.582412,45.79003609996289,45.790023,D,ANS_D,1,2,"[36.666554, 8.605576]",ITI duration: 3.52s,3
PID008,PID08,20251114_124523,2025-11-14 12:45:23,enem_blocks_PID08_20251114_124523.csv,/home/thiago/Documents/fnirs/simple/sessions/Sessions 14-11-25/PID08/enem_blocks_PID08_20251114_124523.csv,A2,Abstract,2,2,AbstractFirst,1,2019_CH_65,2019,CH,65,abstract,606.410311,606.423967,636.294758,643.233361,670.277679,27.044354200013913,27.04434,A,ANS_A,1,2,"[29.739867, 6.802445]",ITI duration: 4.11s,4
PID008,PID08,20251114_124523,2025-11-14 12:45:23,enem_blocks_PID08_20251114_124523.csv,/home/thiago/Documents/fnirs/simple/sessions/Sessions 14-11-25/PID08/enem_blocks_PID08_20251114_124523.csv,A2,Abstract,2,2,AbstractFirst,2,2021_CH_86,2021,CH,86,abstract,674.099908,674.117823,703.64971,710.570879,749.49731,38.926466900040396,38.926458,A,ANS_A,1,2,"[29.402674, 6.786513]",ITI duration: 3.31s,5
PID008,PID08,20251114_124523,2025-11-14 12:45:23,enem_blocks_PID08_20251114_124523.csv,/home/thiago/Documents/fnirs/simple/sessions/Sessions 14-11-25/PID08/enem_blocks_PID08_20251114_124523.csv,A2,Abstract,2,2,AbstractFirst,3,2020_CH_76,2020,CH,76,abstract,754.836336,754.856934,792.71676,795.308924,838.698951,43.39006300002802,43.390055,E,ANS_E,1,2,"[37.731851, 2.456622]",ITI duration: 4.82s,6
PID008,PID08,20251114_124523,2025-11-14 12:45:23,enem_blocks_PID08_20251114_124523.csv,/home/thiago/Documents/fnirs/simple/sessions/Sessions 14-11-25/PID08/enem_blocks_PID08_20251114_124523.csv,A3,Abstract,3,3,AbstractFirst,1,2020_LC_31,2020,LC,31,abstract,1027.977819,1027.999259,1060.126415,1064.285218,1089.476044,25.1908623999916,25.190849,D,ANS_D,1,2,"[31.998555, 4.0211]",ITI duration: 4.16s,7
PID008,PID08,20251114_124523,2025-11-14 12:45:23,enem_blocks_PID08_20251114_124523.csv,/home/thiago/Documents/fnirs/simple/sessions/Sessions 14-11-25/PID08/enem_blocks_PID08_20251114_124523.csv,A3,Abstract,3,3,AbstractFirst,2,2021_CH_65,2021,CH,65,abstract,1094.316095,1094.32753,1120.1792,1125.556365,1155.615789,30.05946879996918,30.059455,A,ANS_A,1,2,"[25.727822, 5.240487]",ITI duration: 4.31s,8
PID008,PID08,20251114_124523,2025-11-14 12:45:23,enem_blocks_PID08_20251114_124523.csv,/home/thiago/Documents/fnirs/simple/sessions/Sessions 14-11-25/PID08/enem_blocks_PID08_20251114_124523.csv,A3,Abstract,3,3,AbstractFirst,3,2021_CH_83,2021,CH,83,abstract,1160.788997,1160.811494,1205.352539,1213.389102,1252.633224,39.24415859999135,39.244145,A,ANS_A,1,2,"[44.412452, 7.903192]",ITI duration: 4.66s,9
PID008,PID08,20251114_124523,2025-11-14 12:45:23,enem_blocks_PID08_20251114_124523.csv,/home/thiago/Documents/fnirs/simple/sessions/Sessions 14-11-25/PID08/enem_blocks_PID08_20251114_124523.csv,A4,Abstract,4,4,AbstractFirst,1,2019_CH_56,2019,CH,56,abstract,1449.543964,1449.558233,1464.69226,1471.814717,1507.526206,35.71152760006953,35.711514,D,ANS_D,1,2,"[15.008587, 6.990983]",ITI duration: 4.10s,10
PID008,PID08,20251114_124523,2025-11-14 12:45:23,enem_blocks_PID08_20251114_124523.csv,/home/thiago/Documents/fnirs/simple/sessions/Sessions 14-11-25/PID08/enem_blocks_PID08_20251114_124523.csv,A4,Abstract,4,4,AbstractFirst,2,2020_CH_77,2020,CH,77,abstract,1512.801452,1512.813803,1528.998069,1534.512203,1562.967318,28.455151599948294,28.455135,D,ANS_D,1,2,"[16.058641, 5.374317]",ITI duration: 4.76s,11
PID008,PID08,20251114_124523,2025-11-14 12:45:23,enem_blocks_PID08_20251114_124523.csv,/home/thiago/Documents/fnirs/simple/sessions/Sessions 14-11-25/PID08/enem_blocks_PID08_20251114_124523.csv,A4,Abstract,4,4,AbstractFirst,3,2022_CH_71,2022,CH,71,abstract,1567.508625,1567.519085,1584.606437,1589.819636,1645.821862,56.00226549990475,56.002249,D,ANS_D,1,2,"[16.962678, 5.073447]",ITI duration: 4.02s,12
PID008,PID08,20251114_124523,2025-11-14 12:45:23,enem_blocks_PID08_20251114_124523.csv,/home/thiago/Documents/fnirs/simple/sessions/Sessions 14-11-25/PID08/enem_blocks_PID08_20251114_124523.csv,A5,Abstract,5,5,AbstractFirst,1,2021_CH_57,2021,CH,57,abstract,1870.260637,1870.271583,1884.640104,1886.433011,1894.198091,7.765114099951461,7.765103,B,ANS_B,1,2,"[14.244542, 1.658092]",ITI duration: 3.68s,13
PID008,PID08,20251114_124523,2025-11-14 12:45:23,enem_blocks_PID08_20251114_124523.csv,/home/thiago/Documents/fnirs/simple/sessions/Sessions 14-11-25/PID08/enem_blocks_PID08_20251114_124523.csv,A5,Abstract,5,5,AbstractFirst,2,2021_CH_51,2021,CH,51,abstract,1898.921559,1898.932325,1924.317508,1927.608629,1940.724937,13.116341899964027,13.116329,A,ANS_A,1,2,"[25.260205, 3.158741]",ITI duration: 4.21s,14
PID008,PID08,20251114_124523,2025-11-14 12:45:23,enem_blocks_PID08_20251114_124523.csv,/home/thiago/Documents/fnirs/simple/sessions/Sessions 14-11-25/PID08/enem_blocks_PID08_20251114_124523.csv,A5,Abstract,5,5,AbstractFirst,3,2022_CH_47,2022,CH,47,abstract,1945.682779,1945.698323,1969.632544,1972.63361,1994.165743,21.532170200021937,21.532161,A,ANS_A,1,2,"[23.805561, 2.869873]",ITI duration: 4.43s,15
PID008,PID08,20251114_124523,2025-11-14 12:45:23,enem_blocks_PID08_20251114_124523.csv,/home/thiago/Documents/fnirs/simple/sessions/Sessions 14-11-25/PID08/enem_blocks_PID08_20251114_124523.csv,C1,Concrete,1,6,AbstractFirst,1,2020_CH_56,2020,CH,56,concrete,2291.076407,2291.086818,2300.145861,2306.932164,2332.729684,25.79756050009746,25.797551,D,ANS_D,1,2,"[8.930549, 6.655263]",ITI duration: 3.30s,16
PID008,PID08,20251114_124523,2025-11-14 12:45:23,enem_blocks_PID08_20251114_124523.csv,/home/thiago/Documents/fnirs/simple/sessions/Sessions 14-11-25/PID08/enem_blocks_PID08_20251114_124523.csv,C1,Concrete,1,6,AbstractFirst,2,2018_CH_77,2018,CH,77,concrete,2336.535615,2336.548375,2349.551613,2351.393901,2382.771034,31.37716819997877,31.377153,A,ANS_A,1,2,"[12.877346, 1.708052]",ITI duration: 3.29s,17
PID008,PID08,20251114_124523,2025-11-14 12:45:23,enem_blocks_PID08_20251114_124523.csv,/home/thiago/Documents/fnirs/simple/sessions/Sessions 14-11-25/PID08/enem_blocks_PID08_20251114_124523.csv,C1,Concrete,1,6,AbstractFirst,3,2021_CH_46,2021,CH,46,concrete,2388.077628,2388.090842,2400.475956,2403.256601,2461.675716,58.419150799978524,58.419143,C,ANS_C,1,2,"[12.260484, 2.642981]",ITI duration: 4.80s,18
PID008,PID08,20251114_124523,2025-11-14 12:45:23,enem_blocks_PID08_20251114_124523.csv,/home/thiago/Documents/fnirs/simple/sessions/Sessions 14-11-25/PID08/enem_blocks_PID08_20251114_124523.csv,C2,Concrete,2,7,AbstractFirst,1,2020_CH_78,2020,CH,78,concrete,2714.359501,2714.369131,2721.477439,2723.186656,2756.394342,33.207718900055625,33.207703,E,ANS_E,1,2,"[6.981321, 1.573771]",ITI duration: 3.97s,19
PID008,PID08,20251114_124523,2025-11-14 12:45:23,enem_blocks_PID08_20251114_124523.csv,/home/thiago/Documents/fnirs/simple/sessions/Sessions 14-11-25/PID08/enem_blocks_PID08_20251114_124523.csv,C2,Concrete,2,7,AbstractFirst,2,2020_CH_59,2020,CH,59,concrete,2760.81777,2760.834019,2794.098242,2801.402046,2834.148381,32.74636939994525,32.746356,D,ANS_D,1,2,"[33.13923, 7.172418]",ITI duration: 3.90s,20
PID008,PID08,20251114_124523,2025-11-14 12:45:23,enem_blocks_PID08_20251114_124523.csv,/home/thiago/Documents/fnirs/simple/sessions/Sessions 14-11-25/PID08/enem_blocks_PID08_20251114_124523.csv,C2,Concrete,2,7,AbstractFirst,3,2020_CH_84,2020,CH,84,concrete,2839.022972,2839.032369,2866.718699,2869.559848,2918.901838,49.34202599991113,49.342017,B,ANS_B,1,2,"[27.562434, 2.708857]",ITI duration: 4.36s,21
PID008,PID08,20251114_124523,2025-11-14 12:45:23,enem_blocks_PID08_20251114_124523.csv,/home/thiago/Documents/fnirs/simple/sessions/Sessions 14-11-25/PID08/enem_blocks_PID08_20251114_124523.csv,C3,Concrete,3,8,AbstractFirst,1,2021_LC_26,2021,LC,26,concrete,3135.09257,3135.123989,3173.756143,3182.963787,3302.157615,119.19386169989593,119.193853,E,ANS_E,1,2,"[38.505664, 9.072988]",ITI duration: 3.56s,22
PID008,PID08,20251114_124523,2025-11-14 12:45:23,enem_blocks_PID08_20251114_124523.csv,/home/thiago/Documents/fnirs/simple/sessions/Sessions 14-11-25/PID08/enem_blocks_PID08_20251114_124523.csv,C3,Concrete,3,8,AbstractFirst,2,2017_CH_68,2017,CH,68,concrete,3306.732121,3306.743372,3316.816328,3319.457088,3342.584926,23.12788270006422,23.127871,E,ANS_E,1,2,"[9.94608, 2.507596]",ITI duration: 4.06s,23
PID008,PID08,20251114_124523,2025-11-14 12:45:23,enem_blocks_PID08_20251114_124523.csv,/home/thiago/Documents/fnirs/simple/sessions/Sessions 14-11-25/PID08/enem_blocks_PID08_20251114_124523.csv,C3,Concrete,3,8,AbstractFirst,3,2021_CH_76,2021,CH,76,concrete,3347.64255,3347.66122,3363.645737,3368.583115,3398.344464,29.761383599950932,29.761373,B,ANS_B,1,2,"[15.854589, 4.803081]",ITI duration: 4.54s,24
PID008,PID08,20251114_124523,2025-11-14 12:45:23,enem_blocks_PID08_20251114_124523.csv,/home/thiago/Documents/fnirs/simple/sessions/Sessions 14-11-25/PID08/enem_blocks_PID08_20251114_124523.csv,C4,Concrete,4,9,AbstractFirst,1,2018_LC_44,2018,LC,44,concrete,3557.092603,3557.112722,3582.406515,3583.136893,3605.578158,22.441312700044364,22.441301,C,ANS_C,1,2,"[25.168656, 0.591801]",ITI duration: 3.58s,25
PID008,PID08,20251114_124523,2025-11-14 12:45:23,enem_blocks_PID08_20251114_124523.csv,/home/thiago/Documents/fnirs/simple/sessions/Sessions 14-11-25/PID08/enem_blocks_PID08_20251114_124523.csv,C4,Concrete,4,9,AbstractFirst,2,2020_CH_70,2020,CH,70,concrete,3610.233795,3610.245607,3623.98465,3625.806978,3646.83634,21.029397499980405,21.029384,E,ANS_E,1,2,"[13.611798, 1.690854]",ITI duration: 4.15s,26
PID008,PID08,20251114_124523,2025-11-14 12:45:23,enem_blocks_PID08_20251114_124523.csv,/home/thiago/Documents/fnirs/simple/sessions/Sessions 14-11-25/PID08/enem_blocks_PID08_20251114_124523.csv,C4,Concrete,4,9,AbstractFirst,3,2017_CH_47,2017,CH,47,concrete,3651.110855,3651.120772,3661.344831,3662.324131,3672.667618,10.34352819994092,10.343514,D,ANS_D,1,2,"[10.098155, 0.840835]",ITI duration: 3.76s,27
PID008,PID08,20251114_124523,2025-11-14 12:45:23,enem_blocks_PID08_20251114_124523.csv,/home/thiago/Documents/fnirs/simple/sessions/Sessions 14-11-25/PID08/enem_blocks_PID08_20251114_124523.csv,C5,Concrete,5,10,AbstractFirst,1,2017_CH_75,2017,CH,75,concrete,3980.125026,3980.14374,3995.539702,3996.804651,4017.9949,21.190317299915478,21.190307,D,ANS_D,1,2,"[15.2723, 1.126179]",ITI duration: 4.97s,28
PID008,PID08,20251114_124523,2025-11-14 12:45:23,enem_blocks_PID08_20251114_124523.csv,/home/thiago/Documents/fnirs/simple/sessions/Sessions 14-11-25/PID08/enem_blocks_PID08_20251114_124523.csv,C5,Concrete,5,10,AbstractFirst,2,2020_CH_82,2020,CH,82,concrete,4022.05197,4022.078583,4052.10394,4054.095936,4072.803196,18.707330200006254,18.707315,D,ANS_D,1,2,"[29.89619, 1.853324]",ITI duration: 3.53s,29
PID008,PID08,20251114_124523,2025-11-14 12:45:23,enem_blocks_PID08_20251114_124523.csv,/home/thiago/Documents/fnirs/simple/sessions/Sessions 14-11-25/PID08/enem_blocks_PID08_20251114_124523.csv,C5,Concrete,5,10,AbstractFirst,3,2017_CH_69,2017,CH,69,concrete,4077.077493,4077.105827,4091.251025,4092.357019,4115.928974,23.572021499974653,23.572013,E,ANS_E,1,2,"[14.011916, 0.966006]",ITI duration: 3.76s,30
PID009,PID09,20251114_143701,2025-11-14 14:37:01,enem_blocks_PID09_20251114_143701.csv,/home/thiago/Documents/fnirs/simple/sessions/Sessions 14-11-25/PID09/enem_blocks_PID09_20251114_143701.csv,A1,Abstract,1,1,AbstractFirst,1,2019_CH_56,2019,CH,56,abstract,278.696084,278.727008,338.504488,346.143186,416.567235,70.42408570006955,70.424077,B,ANS_B,1,2,"[59.652619, 7.489121]",ITI duration: 4.69s,1
PID009,PID09,20251114_143701,2025-11-14 14:37:01,enem_blocks_PID09_20251114_143701.csv,/home/thiago/Documents/fnirs/simple/sessions/Sessions 14-11-25/PID09/enem_blocks_PID09_20251114_143701.csv,A1,Abstract,1,1,AbstractFirst,2,2022_CH_47,2022,CH,47,abstract,420.523814,420.544099,471.473193,479.656918,553.82822,74.17133789998479,74.171314,E,ANS_E,1,2,"[50.797439, 8.050306]",ITI duration: 3.42s,2
PID009,PID09,20251114_143701,2025-11-14 14:37:01,enem_blocks_PID09_20251114_143701.csv,/home/thiago/Documents/fnirs/simple/sessions/Sessions 14-11-25/PID09/enem_blocks_PID09_20251114_143701.csv,A1,Abstract,1,1,AbstractFirst,3,2021_CH_83,2021,CH,83,abstract,558.035783,558.058681,598.865045,611.788826,677.65765,65.86885950004216,65.868846,B,ANS_B,1,2,"[40.679198, 12.787697]",ITI duration: 3.68s,3
PID009,PID09,20251114_143701,2025-11-14 14:37:01,enem_blocks_PID09_20251114_143701.csv,/home/thiago/Documents/fnirs/simple/sessions/Sessions 14-11-25/PID09/enem_blocks_PID09_20251114_143701.csv,A2,Abstract,2,2,AbstractFirst,1,2022_CH_71,2022,CH,71,abstract,701.978474,701.994154,743.843467,749.934789,921.687226,171.75247329997364,171.752465,A,ANS_A,1,2,"[41.721241, 5.953417]",ITI duration: 4.55s,4
PID009,PID09,20251114_143701,2025-11-14 14:37:01,enem_blocks_PID09_20251114_143701.csv,/home/thiago/Documents/fnirs/simple/sessions/Sessions 14-11-25/PID09/enem_blocks_PID09_20251114_143701.csv,A2,Abstract,2,2,AbstractFirst,2,2022_CH_60,2022,CH,60,abstract,925.227728,925.245411,928.676945,929.655897,1042.767169,113.11130819993559,113.111292,B,ANS_B,1,2,"[3.306004, 0.841405]",ITI duration: 3.02s,5
PID009,PID09,20251114_143701,2025-11-14 14:37:01,enem_blocks_PID09_20251114_143701.csv,/home/thiago/Documents/fnirs/simple/sessions/Sessions 14-11-25/PID09/enem_blocks_PID09_20251114_143701.csv,A2,Abstract,2,2,AbstractFirst,3,2021_CH_51,2021,CH,51,abstract,1047.373843,1047.38917,1070.258202,1071.98071,1182.345327,110.36465620005038,110.364644,B,ANS_B,1,2,"[22.740513, 1.588796]",ITI duration: 4.10s,6
PID009,PID09,20251114_143701,2025-11-14 14:37:01,enem_blocks_PID09_20251114_143701.csv,/home/thiago/Documents/fnirs/simple/sessions/Sessions 14-11-25/PID09/enem_blocks_PID09_20251114_143701.csv,A3,Abstract,3,3,AbstractFirst,1,2021_CH_65,2021,CH,65,abstract,1189.635605,1189.646577,1235.711303,1236.954019,1513.926898,276.97291820007376,276.972905,B,ANS_B,1,2,"[45.94086, 1.108489]",ITI duration: 4.15s,7
PID009,PID09,20251114_143701,2025-11-14 14:37:01,enem_blocks_PID09_20251114_143701.csv,/home/thiago/Documents/fnirs/simple/sessions/Sessions 14-11-25/PID09/enem_blocks_PID09_20251114_143701.csv,A3,Abstract,3,3,AbstractFirst,2,2020_CH_76,2020,CH,76,abstract,1517.950788,1517.968044,1521.367194,1522.125966,1850.123839,327.99790880002547,327.997893,B,ANS_B,1,2,"[3.27323, 0.625749]",ITI duration: 3.50s,8
PID009,PID09,20251114_143701,2025-11-14 14:37:01,enem_blocks_PID09_20251114_143701.csv,/home/thiago/Documents/fnirs/simple/sessions/Sessions 14-11-25/PID09/enem_blocks_PID09_20251114_143701.csv,A4,Abstract,4,4,AbstractFirst,1,2022_CH_51,2022,CH,51,abstract,1862.361823,1862.380988,1880.163374,1881.383791,2139.844442,258.46068440005183,258.460668,B,ANS_B,1,2,"[17.654703, 1.087756]",ITI duration: 4.13s,9
PID009,PID09,20251114_143701,2025-11-14 14:37:01,enem_blocks_PID09_20251114_143701.csv,/home/thiago/Documents/fnirs/simple/sessions/Sessions 14-11-25/PID09/enem_blocks_PID09_20251114_143701.csv,A4,Abstract,4,4,AbstractFirst,2,2020_LC_31,2020,LC,31,abstract,2145.26786,2145.295781,2160.96883,2161.808159,2262.140927,100.33280719991308,100.332794,E,ANS_E,1,2,"[15.543597, 0.705933]",ITI duration: 4.91s,10
PID009,PID09,20251114_143701,2025-11-14 14:37:01,enem_blocks_PID09_20251114_143701.csv,/home/thiago/Documents/fnirs/simple/sessions/Sessions 14-11-25/PID09/enem_blocks_PID09_20251114_143701.csv,A4,Abstract,4,4,AbstractFirst,3,2019_CH_64,2019,CH,64,abstract,2267.348351,2267.361703,2275.097541,2276.75728,2380.738175,103.98092970007565,103.98092,C,ANS_C,1,2,"[7.611346, 1.522663]",ITI duration: 4.69s,11
PID009,PID09,20251114_143701,2025-11-14 14:37:01,enem_blocks_PID09_20251114_143701.csv,/home/thiago/Documents/fnirs/simple/sessions/Sessions 14-11-25/PID09/enem_blocks_PID09_20251114_143701.csv,A5,Abstract,5,5,AbstractFirst,1,2021_CH_86,2021,CH,86,abstract,2389.711385,2389.72338,2409.477261,2410.301105,2631.348601,221.0475460999878,221.047527,D,ANS_D,1,2,"[19.6271, 0.690627]",ITI duration: 4.39s,12
PID009,PID09,20251114_143701,2025-11-14 14:37:01,enem_blocks_PID09_20251114_143701.csv,/home/thiago/Documents/fnirs/simple/sessions/Sessions 14-11-25/PID09/enem_blocks_PID09_20251114_143701.csv,A5,Abstract,5,5,AbstractFirst,2,2019_CH_65,2019,CH,65,abstract,2636.456821,2636.472232,2644.421845,2645.032103,2780.109539,135.07747450005263,135.077461,A,ANS_A,1,2,"[7.824537, 0.475904]",ITI duration: 4.60s,13
PID009,PID09,20251114_143701,2025-11-14 14:37:01,enem_blocks_PID09_20251114_143701.csv,/home/thiago/Documents/fnirs/simple/sessions/Sessions 14-11-25/PID09/enem_blocks_PID09_20251114_143701.csv,A5,Abstract,5,5,AbstractFirst,3,2021_CH_57,2021,CH,57,abstract,2785.081994,2785.09327,2802.982243,2804.423765,2993.308531,188.88480200001504,188.884788,B,ANS_B,1,2,"[17.762014, 1.305507]",ITI duration: 4.46s,14
PID009,PID09,20251114_143701,2025-11-14 14:37:01,enem_blocks_PID09_20251114_143701.csv,/home/thiago/Documents/fnirs/simple/sessions/Sessions 14-11-25/PID09/enem_blocks_PID09_20251114_143701.csv,C1,Concrete,1,6,AbstractFirst,1,2021_CH_76,2021,CH,76,concrete,3000.598226,3000.614485,3004.652483,3005.691055,3220.056238,214.3652331000194,214.365214,B,ANS_B,1,2,"[3.908805, 0.903583]",ITI duration: 3.71s,15
PID009,PID09,20251114_143701,2025-11-14 14:37:01,enem_blocks_PID09_20251114_143701.csv,/home/thiago/Documents/fnirs/simple/sessions/Sessions 14-11-25/PID09/enem_blocks_PID09_20251114_143701.csv,C1,Concrete,1,6,AbstractFirst,2,2017_CH_75,2017,CH,75,concrete,3225.295656,3225.312666,3277.805809,3278.732429,3421.656835,142.9244420999894,142.924432,E,ANS_E,1,2,"[52.366452, 0.789143]",ITI duration: 4.72s,16
PID009,PID09,20251114_143701,2025-11-14 14:37:01,enem_blocks_PID09_20251114_143701.csv,/home/thiago/Documents/fnirs/simple/sessions/Sessions 14-11-25/PID09/enem_blocks_PID09_20251114_143701.csv,C2,Concrete,2,7,AbstractFirst,1,2020_CH_70,2020,CH,70,concrete,3427.713422,3427.723869,3437.683903,3438.472666,3745.655874,307.1832528000232,307.183234,D,ANS_D,1,2,"[9.830921, 0.654375]",ITI duration: 3.59s,17
PID009,PID09,20251114_143701,2025-11-14 14:37:01,enem_blocks_PID09_20251114_143701.csv,/home/thiago/Documents/fnirs/simple/sessions/Sessions 14-11-25/PID09/enem_blocks_PID09_20251114_143701.csv,C2,Concrete,2,7,AbstractFirst,2,2018_LC_44,2018,LC,44,concrete,3750.962291,3750.983719,3752.849063,3753.70527,3900.047751,146.3425306000281,146.342517,D,ANS_D,1,2,"[1.737995, 0.722557]",ITI duration: 4.79s,18
PID009,PID09,20251114_143701,2025-11-14 14:37:01,enem_blocks_PID09_20251114_143701.csv,/home/thiago/Documents/fnirs/simple/sessions/Sessions 14-11-25/PID09/enem_blocks_PID09_20251114_143701.csv,C3,Concrete,3,8,AbstractFirst,1,2020_CH_82,2020,CH,82,concrete,3906.289119,3906.310726,3938.02127,3939.490318,4030.426709,90.93642639997415,90.936418,C,ANS_C,1,2,"[31.580141, 1.33723]",ITI duration: 3.48s,19
PID009,PID09,20251114_143701,2025-11-14 14:37:01,enem_blocks_PID09_20251114_143701.csv,/home/thiago/Documents/fnirs/simple/sessions/Sessions 14-11-25/PID09/enem_blocks_PID09_20251114_143701.csv,C3,Concrete,3,8,AbstractFirst,2,2017_CH_47,2017,CH,47,concrete,4035.883981,4035.897078,4038.51677,4038.966884,4131.278134,92.31128489994444,92.311271,D,ANS_D,1,2,"[2.49518, 0.309227]",ITI duration: 4.94s,20
PID009,PID09,20251114_143701,2025-11-14 14:37:01,enem_blocks_PID09_20251114_143701.csv,/home/thiago/Documents/fnirs/simple/sessions/Sessions 14-11-25/PID09/enem_blocks_PID09_20251114_143701.csv,C3,Concrete,3,8,AbstractFirst,3,2017_CH_69,2017,CH,69,concrete,4135.901417,4135.910934,4138.805105,4140.36008,4282.803216,142.44321209995542,142.443194,A,ANS_A,1,2,"[2.76591, 1.421731]",ITI duration: 4.11s,21
PID009,PID09,20251114_143701,2025-11-14 14:37:01,enem_blocks_PID09_20251114_143701.csv,/home/thiago/Documents/fnirs/simple/sessions/Sessions 14-11-25/PID09/enem_blocks_PID09_20251114_143701.csv,C4,Concrete,4,9,AbstractFirst,1,2020_CH_59,2020,CH,59,concrete,4329.003705,4329.017525,4332.170611,4332.681425,4396.018075,63.33668900001794,63.336675,C,ANS_C,1,2,"[3.028495, 0.37535]",ITI duration: 4.11s,22
PID009,PID09,20251114_143701,2025-11-14 14:37:01,enem_blocks_PID09_20251114_143701.csv,/home/thiago/Documents/fnirs/simple/sessions/Sessions 14-11-25/PID09/enem_blocks_PID09_20251114_143701.csv,C4,Concrete,4,9,AbstractFirst,2,2020_CH_84,2020,CH,84,concrete,4400.192783,4400.201619,4402.01197,4402.653524,4468.774383,66.12089819996618,66.12089,E,ANS_E,1,2,"[1.683997, 0.506933]",ITI duration: 3.65s,23
PID009,PID09,20251114_143701,2025-11-14 14:37:01,enem_blocks_PID09_20251114_143701.csv,/home/thiago/Documents/fnirs/simple/sessions/Sessions 14-11-25/PID09/enem_blocks_PID09_20251114_143701.csv,C4,Concrete,4,9,AbstractFirst,3,2018_CH_77,2018,CH,77,concrete,4473.414297,4473.428227,4480.247128,4480.687327,4546.829014,66.14172239997424,66.141709,A,ANS_A,1,2,"[6.694354, 0.307319]",ITI duration: 4.13s,24
PID009,PID09,20251114_143701,2025-11-14 14:37:01,enem_blocks_PID09_20251114_143701.csv,/home/thiago/Documents/fnirs/simple/sessions/Sessions 14-11-25/PID09/enem_blocks_PID09_20251114_143701.csv,C5,Concrete,5,10,AbstractFirst,1,2021_CH_46,2021,CH,46,concrete,4750.621532,4750.636318,4753.323755,4754.028318,4797.588931,43.560647499980405,43.560634,C,ANS_C,1,2,"[2.559283, 0.57177]",ITI duration: 4.66s,25
PID009,PID09,20251114_143701,2025-11-14 14:37:01,enem_blocks_PID09_20251114_143701.csv,/home/thiago/Documents/fnirs/simple/sessions/Sessions 14-11-25/PID09/enem_blocks_PID09_20251114_143701.csv,C5,Concrete,5,10,AbstractFirst,2,2020_CH_56,2020,CH,56,concrete,4801.445755,4801.453815,4814.83381,4815.43549,4885.909318,70.4738627000479,70.473853,B,ANS_B,1,2,"[13.250493, 0.468604]",ITI duration: 3.34s,26
PID009,PID09,20251114_143701,2025-11-14 14:37:01,enem_blocks_PID09_20251114_143701.csv,/home/thiago/Documents/fnirs/simple/sessions/Sessions 14-11-25/PID09/enem_blocks_PID09_20251114_143701.csv,C5,Concrete,5,10,AbstractFirst,3,2017_CH_68,2017,CH,68,concrete,4890.164746,4890.175375,4891.91626,4892.527731,4991.124911,98.597222100012,98.597208,D,ANS_D,1,2,"[1.616161, 0.473364]",ITI duration: 3.74s,27
PID010,PID010,20251114_165001,2025-11-14 16:50:01,enem_blocks_PID010_20251114_165001.csv,/home/thiago/Documents/fnirs/simple/sessions/Sessions 14-11-25/PID010/enem_blocks_PID010_20251114_165001.csv,C1,Concrete,1,1,ConcreteFirst,1,2020_CH_56,2020,CH,56,concrete,309.591844,309.604375,320.862444,352.107567,369.708589,17.601057399995625,17.60103,D,ANS_D,1,2,"[11.128664, 31.098766]",ITI duration: 4.10s,1
PID010,PID010,20251114_165001,2025-11-14 16:50:01,enem_blocks_PID010_20251114_165001.csv,/home/thiago/Documents/fnirs/simple/sessions/Sessions 14-11-25/PID010/enem_blocks_PID010_20251114_165001.csv,C1,Concrete,1,1,ConcreteFirst,2,2017_CH_47,2017,CH,47,concrete,374.464378,374.48281,374.777784,414.563082,460.55932,45.996289500035346,45.996276,D,ANS_D,1,2,"[0.165051, 39.639785]",ITI duration: 4.23s,2
PID010,PID010,20251114_165001,2025-11-14 16:50:01,enem_blocks_PID010_20251114_165001.csv,/home/thiago/Documents/fnirs/simple/sessions/Sessions 14-11-25/PID010/enem_blocks_PID010_20251114_165001.csv,C1,Concrete,1,1,ConcreteFirst,3,2020_CH_84,2020,CH,84,concrete,464.400383,464.41321,467.267582,519.288634,558.428555,39.139957900042646,39.139944,B,ANS_B,1,2,"[2.728499, 51.882722]",ITI duration: 3.32s,3
PID010,PID010,20251114_165001,2025-11-14 16:50:01,enem_blocks_PID010_20251114_165001.csv,/home/thiago/Documents/fnirs/simple/sessions/Sessions 14-11-25/PID010/enem_blocks_PID010_20251114_165001.csv,C2,Concrete,2,2,ConcreteFirst,1,2020_CH_59,2020,CH,59,concrete,731.758392,731.781135,733.094647,777.90529,829.784965,51.87970920000225,51.879699,C,ANS_C,1,2,"[1.185857, 44.681146]",ITI duration: 4.61s,4
PID010,PID010,20251114_165001,2025-11-14 16:50:01,enem_blocks_PID010_20251114_165001.csv,/home/thiago/Documents/fnirs/simple/sessions/Sessions 14-11-25/PID010/enem_blocks_PID010_20251114_165001.csv,C2,Concrete,2,2,ConcreteFirst,2,2021_CH_76,2021,CH,76,concrete,835.091314,835.115045,836.442727,892.009587,939.368875,47.35932899999898,47.359314,C,ANS_C,1,2,"[1.201623, 55.433981]",ITI duration: 4.79s,5
PID010,PID010,20251114_165001,2025-11-14 16:50:01,enem_blocks_PID010_20251114_165001.csv,/home/thiago/Documents/fnirs/simple/sessions/Sessions 14-11-25/PID010/enem_blocks_PID010_20251114_165001.csv,C2,Concrete,2,2,ConcreteFirst,3,2017_CH_75,2017,CH,75,concrete,943.343207,943.469536,944.773112,1026.708386,1074.412634,47.704287200002,47.704278,E,ANS_E,1,2,"[1.179229, 81.796824]",ITI duration: 3.45s,6
PID010,PID010,20251114_165001,2025-11-14 16:50:01,enem_blocks_PID010_20251114_165001.csv,/home/thiago/Documents/fnirs/simple/sessions/Sessions 14-11-25/PID010/enem_blocks_PID010_20251114_165001.csv,C3,Concrete,3,3,ConcreteFirst,1,2020_CH_70,2020,CH,70,concrete,1150.690212,1150.702888,1151.726656,1180.982912,1243.386556,62.40369260008447,62.403666,A,ANS_A,1,2,"[0.897682, 29.120096]",ITI duration: 3.17s,7
PID010,PID010,20251114_165001,2025-11-14 16:50:01,enem_blocks_PID010_20251114_165001.csv,/home/thiago/Documents/fnirs/simple/sessions/Sessions 14-11-25/PID010/enem_blocks_PID010_20251114_165001.csv,C3,Concrete,3,3,ConcreteFirst,2,2017_CH_68,2017,CH,68,concrete,1247.376898,1247.388436,1249.327706,1273.429967,1309.642489,36.21255930000916,36.212548,C,ANS_C,1,2,"[1.813443, 23.969844]",ITI duration: 3.48s,8
PID010,PID010,20251114_165001,2025-11-14 16:50:01,enem_blocks_PID010_20251114_165001.csv,/home/thiago/Documents/fnirs/simple/sessions/Sessions 14-11-25/PID010/enem_blocks_PID010_20251114_165001.csv,C3,Concrete,3,3,ConcreteFirst,3,2018_LC_44,2018,LC,44,concrete,1314.431708,1314.452363,1315.852808,1330.005069,1431.572543,101.56750930007547,101.567496,A,ANS_A,1,2,"[1.272388, 14.019277]",ITI duration: 4.27s,9
PID010,PID010,20251114_165001,2025-11-14 16:50:01,enem_blocks_PID010_20251114_165001.csv,/home/thiago/Documents/fnirs/simple/sessions/Sessions 14-11-25/PID010/enem_blocks_PID010_20251114_165001.csv,C4,Concrete,4,4,ConcreteFirst,1,2020_CH_82,2020,CH,82,concrete,1571.541396,1571.557964,1572.894415,1586.214579,1670.068917,83.85437249997631,83.854364,A,ANS_A,1,2,"[1.209141, 13.186792]",ITI duration: 3.05s,10
PID010,PID010,20251114_165001,2025-11-14 16:50:01,enem_blocks_PID010_20251114_165001.csv,/home/thiago/Documents/fnirs/simple/sessions/Sessions 14-11-25/PID010/enem_blocks_PID010_20251114_165001.csv,C4,Concrete,4,4,ConcreteFirst,2,2020_CH_78,2020,CH,78,concrete,1675.441609,1675.450736,1676.576729,1677.152847,1799.531849,122.37903829989955,122.37903,A,ANS_A,1,2,"[1.000233, 0.439533]",ITI duration: 4.86s,11
PID010,PID010,20251114_165001,2025-11-14 16:50:01,enem_blocks_PID010_20251114_165001.csv,/home/thiago/Documents/fnirs/simple/sessions/Sessions 14-11-25/PID010/enem_blocks_PID010_20251114_165001.csv,C4,Concrete,4,4,ConcreteFirst,3,2021_CH_46,2021,CH,46,concrete,1804.304961,1804.316541,1805.474623,1805.997172,1887.117786,81.12064719991758,81.120634,A,ANS_A,1,2,"[1.030576, 0.387942]",ITI duration: 4.25s,12
